"trial_type","trial_index","time_elapsed","internal_node_id","subject_id","success","timeout","failed_images","failed_audio","failed_video","rt","stimulus","response","view_history","phase","trial_name","trial_num","key_selected","card_selected","reward","question_order","type_of_trial","block_type","block","index_right","index_left","prob_selected","prob_unselected"
"pavlovia","0","3227","0.0-0.0","5c71b17c891e3200012477a2","","","","","","","","","","","","","","","","","","","","","","",""
"preload","1","31589","0.0-1.0","5c71b17c891e3200012477a2","true","false","[]","[]","[]","","","","","","","","","","","","","","","","","",""
"html-button-response","2","39954","0.0-2.0","5c71b17c891e3200012477a2","","","","","","8364","You can participate in this experiment only if you answer all the following criteria: <br><br>1.You are aged between 18 and 50<br><br>2.You are not currently diagnosed with any neurlogical or psychiatric condition<br><br>3.You never had a brain injury<br><br>4.You have no form of color vision deficiency<br><br>","0","","","","","","","","","","","","","","",""
"html-button-response","3","45754","0.0-3.0","5c71b17c891e3200012477a2","","","","","","5799","<h2><b>Consent to participate in a research:</b></h2><p><strong>Greetings and thank you for your willingness to participate in this research.</strong> This study aims to examine learning mechanisms. Specifically, it seeks to improve and strengthen the diagnosis and treatment of mental disorders in the future. Hence, your participation is highly valued and contributes significantly.</p><p>For your participation, you will monetary compensation. Additionally, you could win a cash bonus based on your performance (details will be provided later in the form). Finally, at the end of the experiment, we would appreciate discussing the research questions further and sharing the results with you.</p><p><b>Participation Criteria:</b></p><p>The experiment is intended for young adults aged <strong>18 to 50</strong>. You cannot participate if you regularly use psychiatric or neurological medications, have a psychiatric/neurological diagnosis (including attention deficit hyperactivity disorder - ADHD), a history of head injuries, epilepsy, learning disabilities, or color blindness.</p><p><b>Procedure:</b></p><p>The study will be conducted online using your computer at home. During the experiment, we will track your learning patterns through a simple computer game. The game will display images on the screen, and you will make choices during the game to maximize profits according to rules explained during the experiment itself. The experiment is expected to take about half an hour. Upon completion of participation, compensation will be provided as agreed, and we will offer a full debriefing regarding the research goals and hypotheses.</p><p><b>Expected Risks and Termination of the Experiment:</b></p><p>The expected risks and discomforts in this study are minimal and include potential discomfort during the performance of the computer task. You have the right to withdraw from the experiment at any stage. In case of withdrawal, partial compensation will be provided based on the duration of your participation.</p><p><b>Compensation for Participation:</b></p><p>For completing the experiment,&pound6 per hour will be given. In addition a cash prize will be awarded based on performance in the task. Throughout the task, you can collect points (gold coins). At the end of the task, the number of points you accumulated will be calculated. The amount of points depends on your ability to perform the experiment well, similar to scoring in a computer game. </p><p><b>Anonymity and Data Protection:</b></p><p>The information collected during the experiment will be kept solely on the lab computers and will be not be linked personally to you. </p>","0","","","","","","","","","","","","","","",""
"fullscreen","4","49028","0.0-4.0","5c71b17c891e3200012477a2","true","","","","","","","","","","","","","","","","","","","","","",""
"instructions","5","148483","0.0-5.0-0.0-0.0","5c71b17c891e3200012477a2","","","","","","99454","","","[{""page_index"":0,""viewing_time"":1244},{""page_index"":1,""viewing_time"":10464},{""page_index"":2,""viewing_time"":4392},{""page_index"":3,""viewing_time"":3840},{""page_index"":4,""viewing_time"":9210},{""page_index"":5,""viewing_time"":7911},{""page_index"":6,""viewing_time"":5991},{""page_index"":7,""viewing_time"":1912},{""page_index"":8,""viewing_time"":5128},{""page_index"":9,""viewing_time"":11833},{""page_index"":10,""viewing_time"":10310},{""page_index"":11,""viewing_time"":7952},{""page_index"":12,""viewing_time"":19265}]","","","","","","","","","","","","","",""
"html-keyboard-response","6","151733","0.0-5.0-0.0-1.0","5c71b17c891e3200012477a2","","","","","","3249","<div>We will now start a few practice trials. <br> Please be ready with your fingers on <b>'S'</b> and <b>'K'</b>. <br><br> <b> Press any key to begin</b></div>","s","","","","","","","","","","","","","","",""
"html-keyboard-response","7","153636","0.0-5.0-0.0-2.0-0.0","5c71b17c891e3200012477a2","","","","","","null","<div class=""fixation"">+</div>","null","","","","","","","","","","","","","","",""
"html-keyboard-response","8","155075","0.0-5.0-0.0-2.0-1.0","5c71b17c891e3200012477a2","","","","","","1437","<img class='card_left' src='images/old/20.jpg'><img class='card_right' src='images/old/19.jpg'><div class=""fixation"">+</div>","k","","practice","cards","0","","","","","","","","","","",""
"html-keyboard-response","9","155584","0.0-5.0-0.0-2.0-2.0","5c71b17c891e3200012477a2","","","","","","null","<img class='card_right' src='images/old/19.jpg'><div class=""fixation"">+</div>","null","","practice","choice","0","1","2","","","","","","","","",""
"html-keyboard-response","10","156342","0.0-5.0-0.0-2.0-3.0","5c71b17c891e3200012477a2","","","","","","null","<img class='card_right' src='images/old/19.jpg'><img class=reward src='images/zero_coins.png'>","null","","practice","reward","0","","","0","","","","","","","",""
"html-keyboard-response","11","157256","0.0-5.0-0.0-2.0-0.1","5c71b17c891e3200012477a2","","","","","","null","<div class=""fixation"">+</div>","null","","","","","","","","","","","","","","",""
"html-keyboard-response","12","157941","0.0-5.0-0.0-2.0-1.1","5c71b17c891e3200012477a2","","","","","","685","<img class='card_left' src='images/old/19.jpg'><img class='card_right' src='images/old/20.jpg'><div class=""fixation"">+</div>","s","","practice","cards","0","","","","","","","","","","",""
"html-keyboard-response","13","158447","0.0-5.0-0.0-2.0-2.1","5c71b17c891e3200012477a2","","","","","","null","<img class='card_left' src='images/old/19.jpg'><div class=""fixation"">+</div>","null","","practice","choice","0","0","2","","","","","","","","",""
"html-keyboard-response","14","159204","0.0-5.0-0.0-2.0-3.1","5c71b17c891e3200012477a2","","","","","","null","<img class='card_left' src='images/old/19.jpg'><img class=reward src='images/zero_coins.png'>","null","","practice","reward","0","","","0","","","","","","","",""
"html-keyboard-response","15","160110","0.0-5.0-0.0-2.0-0.2","5c71b17c891e3200012477a2","","","","","","null","<div class=""fixation"">+</div>","null","","","","","","","","","","","","","","",""
"html-keyboard-response","16","161422","0.0-5.0-0.0-2.0-1.2","5c71b17c891e3200012477a2","","","","","","1310","<img class='card_left' src='images/old/17.jpeg'><img class='card_right' src='images/old/18.jpg'><div class=""fixation"">+</div>","s","","practice","cards","0","","","","","","","","","","",""
"html-keyboard-response","17","161923","0.0-5.0-0.0-2.0-2.2","5c71b17c891e3200012477a2","","","","","","null","<img class='card_left' src='images/old/17.jpeg'><div class=""fixation"">+</div>","null","","practice","choice","0","0","0","","","","","","","","",""
"html-keyboard-response","18","162682","0.0-5.0-0.0-2.0-3.2","5c71b17c891e3200012477a2","","","","","","null","<img class='card_left' src='images/old/17.jpeg'><img class=reward src='images/zero_coins.png'>","null","","practice","reward","0","","","0","","","","","","","",""
"html-keyboard-response","19","163594","0.0-5.0-0.0-2.0-0.3","5c71b17c891e3200012477a2","","","","","","null","<div class=""fixation"">+</div>","null","","","","","","","","","","","","","","",""
"html-keyboard-response","20","164369","0.0-5.0-0.0-2.0-1.3","5c71b17c891e3200012477a2","","","","","","774","<img class='card_left' src='images/old/18.jpg'><img class='card_right' src='images/old/17.jpeg'><div class=""fixation"">+</div>","k","","practice","cards","0","","","","","","","","","","",""
"html-keyboard-response","21","164877","0.0-5.0-0.0-2.0-2.3","5c71b17c891e3200012477a2","","","","","","null","<img class='card_right' src='images/old/17.jpeg'><div class=""fixation"">+</div>","null","","practice","choice","0","1","0","","","","","","","","",""
"html-keyboard-response","22","165636","0.0-5.0-0.0-2.0-3.3","5c71b17c891e3200012477a2","","","","","","null","<img class='card_right' src='images/old/17.jpeg'><img class=reward src='images/zero_coins.png'>","null","","practice","reward","0","","","0","","","","","","","",""
"html-keyboard-response","23","166547","0.0-5.0-0.0-2.0-0.4","5c71b17c891e3200012477a2","","","","","","null","<div class=""fixation"">+</div>","null","","","","","","","","","","","","","","",""
"html-keyboard-response","24","167591","0.0-5.0-0.0-2.0-1.4","5c71b17c891e3200012477a2","","","","","","1043","<img class='card_left' src='images/old/17.jpeg'><img class='card_right' src='images/old/18.jpg'><div class=""fixation"">+</div>","k","","practice","cards","0","","","","","","","","","","",""
"html-keyboard-response","25","168091","0.0-5.0-0.0-2.0-2.4","5c71b17c891e3200012477a2","","","","","","null","<img class='card_right' src='images/old/18.jpg'><div class=""fixation"">+</div>","null","","practice","choice","0","1","1","","","","","","","","",""
"html-keyboard-response","26","168850","0.0-5.0-0.0-2.0-3.4","5c71b17c891e3200012477a2","","","","","","null","<img class='card_right' src='images/old/18.jpg'><img class=reward src='images/won1-no-back1.png'>","null","","practice","reward","0","","","1","","","","","","","",""
"html-keyboard-response","27","169764","0.0-5.0-0.0-2.0-0.5","5c71b17c891e3200012477a2","","","","","","null","<div class=""fixation"">+</div>","null","","","","","","","","","","","","","","",""
"html-keyboard-response","28","170569","0.0-5.0-0.0-2.0-1.5","5c71b17c891e3200012477a2","","","","","","804","<img class='card_left' src='images/old/20.jpg'><img class='card_right' src='images/old/19.jpg'><div class=""fixation"">+</div>","s","","practice","cards","0","","","","","","","","","","",""
"html-keyboard-response","29","171075","0.0-5.0-0.0-2.0-2.5","5c71b17c891e3200012477a2","","","","","","null","<img class='card_left' src='images/old/20.jpg'><div class=""fixation"">+</div>","null","","practice","choice","0","0","3","","","","","","","","",""
"html-keyboard-response","30","171832","0.0-5.0-0.0-2.0-3.5","5c71b17c891e3200012477a2","","","","","","null","<img class='card_left' src='images/old/20.jpg'><img class=reward src='images/zero_coins.png'>","null","","practice","reward","0","","","0","","","","","","","",""
"html-keyboard-response","31","172742","0.0-5.0-0.0-2.0-0.6","5c71b17c891e3200012477a2","","","","","","null","<div class=""fixation"">+</div>","null","","","","","","","","","","","","","","",""
"html-keyboard-response","32","173183","0.0-5.0-0.0-2.0-1.6","5c71b17c891e3200012477a2","","","","","","440","<img class='card_left' src='images/old/18.jpg'><img class='card_right' src='images/old/17.jpeg'><div class=""fixation"">+</div>","s","","practice","cards","0","","","","","","","","","","",""
"html-keyboard-response","33","173693","0.0-5.0-0.0-2.0-2.6","5c71b17c891e3200012477a2","","","","","","null","<img class='card_left' src='images/old/18.jpg'><div class=""fixation"">+</div>","null","","practice","choice","0","0","1","","","","","","","","",""
"html-keyboard-response","34","174449","0.0-5.0-0.0-2.0-3.6","5c71b17c891e3200012477a2","","","","","","null","<img class='card_left' src='images/old/18.jpg'><img class=reward src='images/zero_coins.png'>","null","","practice","reward","0","","","0","","","","","","","",""
"html-keyboard-response","35","175364","0.0-5.0-0.0-2.0-0.7","5c71b17c891e3200012477a2","","","","","","null","<div class=""fixation"">+</div>","null","","","","","","","","","","","","","","",""
"html-keyboard-response","36","176147","0.0-5.0-0.0-2.0-1.7","5c71b17c891e3200012477a2","","","","","","781","<img class='card_left' src='images/old/17.jpeg'><img class='card_right' src='images/old/18.jpg'><div class=""fixation"">+</div>","k","","practice","cards","0","","","","","","","","","","",""
"html-keyboard-response","37","176663","0.0-5.0-0.0-2.0-2.7","5c71b17c891e3200012477a2","","","","","","null","<img class='card_right' src='images/old/18.jpg'><div class=""fixation"">+</div>","null","","practice","choice","0","1","1","","","","","","","","",""
"html-keyboard-response","38","177419","0.0-5.0-0.0-2.0-3.7","5c71b17c891e3200012477a2","","","","","","null","<img class='card_right' src='images/old/18.jpg'><img class=reward src='images/zero_coins.png'>","null","","practice","reward","0","","","0","","","","","","","",""
"instructions","39","207418","0.0-5.0-0.0-3.0","5c71b17c891e3200012477a2","","","","","","29998","","","[{""page_index"":0,""viewing_time"":12037},{""page_index"":1,""viewing_time"":8176},{""page_index"":2,""viewing_time"":5489},{""page_index"":3,""viewing_time"":4296}]","","","","","","","","","","","","","",""
"html-keyboard-response","40","208441","0.0-5.0-0.0-4.0","5c71b17c891e3200012477a2","","","","","","1023","<div>We will now start a few practice trials with both the cards and the shapes. <br> Please be ready with your fingers on <b>'S'</b> and <b>'K'</b>. <br><br> <b> Press any key to begin</b></div>","s","","","","","","","","","","","","","","",""
"html-keyboard-response","41","210349","0.0-5.0-0.0-5.0-0.0","5c71b17c891e3200012477a2","","","","","","null","<div class=""fixation"">+</div>","null","","","","","","","","","","","","","","",""
"html-keyboard-response","42","210964","0.0-5.0-0.0-5.0-1.0","5c71b17c891e3200012477a2","","","","","","614","<img class='card_left' src='images/old/17.jpeg'><img class='card_right' src='images/old/18.jpg'><div class=""fixation"">+</div>","k","","practice","cards","0","","","","","","","","","","",""
"html-keyboard-response","43","211471","0.0-5.0-0.0-5.0-2.0","5c71b17c891e3200012477a2","","","","","","null","<img class='card_right' src='images/old/18.jpg'><div class=""fixation"">+</div>","null","","practice","choice","0","1","1","","","","","","","","",""
"html-keyboard-response","44","212227","0.0-5.0-0.0-5.0-3.0","5c71b17c891e3200012477a2","","","","","","null","<img class='card_right' src='images/old/18.jpg'><img class=reward src='images/zero_coins.png'>","null","","practice","reward","0","","","0","","","","","","","",""
"html-keyboard-response","45","213141","0.0-5.0-0.0-5.0-0.1","5c71b17c891e3200012477a2","","","","","","null","<div class=""fixation"">+</div>","null","","","","","","","","","","","","","","",""
"html-keyboard-response","46","214348","0.0-5.0-0.0-5.0-1.1","5c71b17c891e3200012477a2","","","","","","1206","<img class='card_left' src='images/practice_catch_trials/2.png'><img class=surprise src='images/surprise.jpg'><img class='card_right' src='images/practice_catch_trials/3.png'>","k","","practice","cards","0","","","","","","","","","","",""
"html-keyboard-response","47","214855","0.0-5.0-0.0-5.0-2.1","5c71b17c891e3200012477a2","","","","","","null","<img class='card_right' src='images/practice_catch_trials/3.png'><img class=surprise src='images/surprise.jpg'>","null","","practice","choice","0","1","-1","","","","","","","","",""
"html-keyboard-response","48","215612","0.0-5.0-0.0-5.0-3.1","5c71b17c891e3200012477a2","","","","","","null","<img class='card_right' src='images/practice_catch_trials/3.png'><img class=surprise src='images/surprise.jpg'>","null","","practice","reward","0","","","0","","","","","","","",""
"html-keyboard-response","49","216523","0.0-5.0-0.0-5.0-0.2","5c71b17c891e3200012477a2","","","","","","null","<div class=""fixation"">+</div>","null","","","","","","","","","","","","","","",""
"html-keyboard-response","50","217308","0.0-5.0-0.0-5.0-1.2","5c71b17c891e3200012477a2","","","","","","784","<img class='card_left' src='images/old/19.jpg'><img class='card_right' src='images/old/20.jpg'><div class=""fixation"">+</div>","k","","practice","cards","0","","","","","","","","","","",""
"html-keyboard-response","51","217811","0.0-5.0-0.0-5.0-2.2","5c71b17c891e3200012477a2","","","","","","null","<img class='card_right' src='images/old/20.jpg'><div class=""fixation"">+</div>","null","","practice","choice","0","1","3","","","","","","","","",""
"html-keyboard-response","52","218566","0.0-5.0-0.0-5.0-3.2","5c71b17c891e3200012477a2","","","","","","null","<img class='card_right' src='images/old/20.jpg'><img class=reward src='images/zero_coins.png'>","null","","practice","reward","0","","","0","","","","","","","",""
"html-keyboard-response","53","219473","0.0-5.0-0.0-5.0-0.3","5c71b17c891e3200012477a2","","","","","","null","<div class=""fixation"">+</div>","null","","","","","","","","","","","","","","",""
"html-keyboard-response","54","220028","0.0-5.0-0.0-5.0-1.3","5c71b17c891e3200012477a2","","","","","","553","<img class='card_left' src='images/old/19.jpg'><img class='card_right' src='images/old/20.jpg'><div class=""fixation"">+</div>","k","","practice","cards","0","","","","","","","","","","",""
"html-keyboard-response","55","220543","0.0-5.0-0.0-5.0-2.3","5c71b17c891e3200012477a2","","","","","","null","<img class='card_right' src='images/old/20.jpg'><div class=""fixation"">+</div>","null","","practice","choice","0","1","3","","","","","","","","",""
"html-keyboard-response","56","221300","0.0-5.0-0.0-5.0-3.3","5c71b17c891e3200012477a2","","","","","","null","<img class='card_right' src='images/old/20.jpg'><img class=reward src='images/zero_coins.png'>","null","","practice","reward","0","","","0","","","","","","","",""
"html-keyboard-response","57","222209","0.0-5.0-0.0-5.0-0.4","5c71b17c891e3200012477a2","","","","","","null","<div class=""fixation"">+</div>","null","","","","","","","","","","","","","","",""
"html-keyboard-response","58","223065","0.0-5.0-0.0-5.0-1.4","5c71b17c891e3200012477a2","","","","","","854","<img class='card_left' src='images/practice_catch_trials/4.png'><img class=surprise src='images/surprise.jpg'><img class='card_right' src='images/practice_catch_trials/1.png'>","s","","practice","cards","0","","","","","","","","","","",""
"html-keyboard-response","59","223581","0.0-5.0-0.0-5.0-2.4","5c71b17c891e3200012477a2","","","","","","null","<img class='card_left' src='images/practice_catch_trials/4.png'><img class=surprise src='images/surprise.jpg'>","null","","practice","choice","0","0","-1","","","","","","","","",""
"html-keyboard-response","60","224332","0.0-5.0-0.0-5.0-3.4","5c71b17c891e3200012477a2","","","","","","null","<img class='card_left' src='images/practice_catch_trials/4.png'><img class=surprise src='images/surprise.jpg'>","null","","practice","reward","0","","","1","","","","","","","",""
"html-keyboard-response","61","225240","0.0-5.0-0.0-5.0-0.5","5c71b17c891e3200012477a2","","","","","","null","<div class=""fixation"">+</div>","null","","","","","","","","","","","","","","",""
"html-keyboard-response","62","226602","0.0-5.0-0.0-5.0-1.5","5c71b17c891e3200012477a2","","","","","","1360","<img class='card_left' src='images/old/18.jpg'><img class='card_right' src='images/old/17.jpeg'><div class=""fixation"">+</div>","s","","practice","cards","0","","","","","","","","","","",""
"html-keyboard-response","63","227112","0.0-5.0-0.0-5.0-2.5","5c71b17c891e3200012477a2","","","","","","null","<img class='card_left' src='images/old/18.jpg'><div class=""fixation"">+</div>","null","","practice","choice","0","0","1","","","","","","","","",""
"html-keyboard-response","64","227865","0.0-5.0-0.0-5.0-3.5","5c71b17c891e3200012477a2","","","","","","null","<img class='card_left' src='images/old/18.jpg'><img class=reward src='images/won1-no-back1.png'>","null","","practice","reward","0","","","1","","","","","","","",""
"html-keyboard-response","65","228777","0.0-5.0-0.0-5.0-0.6","5c71b17c891e3200012477a2","","","","","","null","<div class=""fixation"">+</div>","null","","","","","","","","","","","","","","",""
"html-keyboard-response","66","229783","0.0-5.0-0.0-5.0-1.6","5c71b17c891e3200012477a2","","","","","","1005","<img class='card_left' src='undefined'><img class=surprise src='images/surprise.jpg'><img class='card_right' src='undefined'>","k","","practice","cards","0","","","","","","","","","","",""
"html-keyboard-response","67","230289","0.0-5.0-0.0-5.0-2.6","5c71b17c891e3200012477a2","","","","","","null","<img class='card_right' src='undefined'><div class=""fixation"">+</div>","null","","practice","choice","0","1","-1","","","","","","","","",""
"html-keyboard-response","68","231047","0.0-5.0-0.0-5.0-3.6","5c71b17c891e3200012477a2","","","","","","null","<img class='card_right' src='undefined'><img class=reward src='images/zero_coins.png'>","null","","practice","reward","0","","","0","","","","","","","",""
"html-keyboard-response","69","231962","0.0-5.0-0.0-5.0-0.7","5c71b17c891e3200012477a2","","","","","","null","<div class=""fixation"">+</div>","null","","","","","","","","","","","","","","",""
"html-keyboard-response","70","232798","0.0-5.0-0.0-5.0-1.7","5c71b17c891e3200012477a2","","","","","","834","<img class='card_left' src='undefined'><img class=surprise src='images/surprise.jpg'><img class='card_right' src='undefined'>","s","","practice","cards","0","","","","","","","","","","",""
"html-keyboard-response","71","233306","0.0-5.0-0.0-5.0-2.7","5c71b17c891e3200012477a2","","","","","","null","<img class='card_left' src='undefined'><div class=""fixation"">+</div>","null","","practice","choice","0","0","-1","","","","","","","","",""
"html-keyboard-response","72","234063","0.0-5.0-0.0-5.0-3.7","5c71b17c891e3200012477a2","","","","","","null","<img class='card_left' src='undefined'><img class=reward src='images/zero_coins.png'>","null","","practice","reward","0","","","0","","","","","","","",""
"html-keyboard-response","73","237041","0.0-5.0-0.0-6.0","5c71b17c891e3200012477a2","","","","","","2977","<p> <br><br> You will now move on to a quick quiz to make sure you understood the instructions. If you make a mistake, you will need to go through the instructions again. <br><br> <b> Press any key to continue</b></p>","k","","","","","","","","","","","","","","",""
"survey-multi-choice","74","309723","0.0-5.0-0.0-7.0","5c71b17c891e3200012477a2","","","","","","72676","","{""deck_size"":""4"",""cards_step"":""2"",""choose_card"":""Press the 'S' or 'K' key with your LEFT or RIGHT hand."",""better_cards"":""True"",""value_change"":""False"",""value_independence"":""False"",""location_value"":""False - you won't win more or less using RIGHT or LEFT response keys. Only the cards are related to your chance of winning."",""reward_announce"":""At the end of the game"",""shapes_repeated"":""False""}","","","","","","","","[0,1,2,3,4,5,6,7,8]","","","","","","",""
"html-button-response","75","312610","0.0-5.0-0.0-8.0-0.0","5c71b17c891e3200012477a2","","","","","","2886","<p>Sorry. You made a mistake.<br>Let's go back to the instructions. Please read them carefully before submitting your answers. <br>Thank you!","0","","","","","","","","","","","","","","",""
"instructions","76","376961","0.0-5.0-0.1-0.1","5c71b17c891e3200012477a2","","","","","","64351","","","[{""page_index"":0,""viewing_time"":919},{""page_index"":1,""viewing_time"":1376},{""page_index"":2,""viewing_time"":712},{""page_index"":3,""viewing_time"":712},{""page_index"":4,""viewing_time"":6840},{""page_index"":5,""viewing_time"":2624},{""page_index"":6,""viewing_time"":5728},{""page_index"":7,""viewing_time"":2655},{""page_index"":8,""viewing_time"":8320},{""page_index"":9,""viewing_time"":6632},{""page_index"":10,""viewing_time"":13368},{""page_index"":11,""viewing_time"":4312},{""page_index"":12,""viewing_time"":10152}]","","","","","","","","","","","","","",""
"html-keyboard-response","77","379071","0.0-5.0-0.1-1.1","5c71b17c891e3200012477a2","","","","","","2110","<div>We will now start a few practice trials. <br> Please be ready with your fingers on <b>'S'</b> and <b>'K'</b>. <br><br> <b> Press any key to begin</b></div>","s","","","","","","","","","","","","","","",""
"html-keyboard-response","78","380987","0.0-5.0-0.1-2.1-0.8","5c71b17c891e3200012477a2","","","","","","null","<div class=""fixation"">+</div>","null","","","","","","","","","","","","","","",""
"html-keyboard-response","79","381498","0.0-5.0-0.1-2.1-1.8","5c71b17c891e3200012477a2","","","","","","510","<img class='card_left' src='images/old/18.jpg'><img class='card_right' src='images/old/17.jpeg'><div class=""fixation"">+</div>","s","","practice","cards","0","","","","","","","","","","",""
"html-keyboard-response","80","382009","0.0-5.0-0.1-2.1-2.8","5c71b17c891e3200012477a2","","","","","","null","<img class='card_left' src='images/old/18.jpg'><div class=""fixation"">+</div>","null","","practice","choice","0","0","1","","","","","","","","",""
"html-keyboard-response","81","382767","0.0-5.0-0.1-2.1-3.8","5c71b17c891e3200012477a2","","","","","","null","<img class='card_left' src='images/old/18.jpg'><img class=reward src='images/won1-no-back1.png'>","null","","practice","reward","0","","","1","","","","","","","",""
"html-keyboard-response","82","383676","0.0-5.0-0.1-2.1-0.9","5c71b17c891e3200012477a2","","","","","","null","<div class=""fixation"">+</div>","null","","","","","","","","","","","","","","",""
"html-keyboard-response","83","384169","0.0-5.0-0.1-2.1-1.9","5c71b17c891e3200012477a2","","","","","","492","<img class='card_left' src='images/old/19.jpg'><img class='card_right' src='images/old/20.jpg'><div class=""fixation"">+</div>","s","","practice","cards","0","","","","","","","","","","",""
"html-keyboard-response","84","384683","0.0-5.0-0.1-2.1-2.9","5c71b17c891e3200012477a2","","","","","","null","<img class='card_left' src='images/old/19.jpg'><div class=""fixation"">+</div>","null","","practice","choice","0","0","2","","","","","","","","",""
"html-keyboard-response","85","385439","0.0-5.0-0.1-2.1-3.9","5c71b17c891e3200012477a2","","","","","","null","<img class='card_left' src='images/old/19.jpg'><img class=reward src='images/zero_coins.png'>","null","","practice","reward","0","","","0","","","","","","","",""
"html-keyboard-response","86","386349","0.0-5.0-0.1-2.1-0.10","5c71b17c891e3200012477a2","","","","","","null","<div class=""fixation"">+</div>","null","","","","","","","","","","","","","","",""
"html-keyboard-response","87","386782","0.0-5.0-0.1-2.1-1.10","5c71b17c891e3200012477a2","","","","","","432","<img class='card_left' src='images/old/19.jpg'><img class='card_right' src='images/old/20.jpg'><div class=""fixation"">+</div>","s","","practice","cards","0","","","","","","","","","","",""
"html-keyboard-response","88","387291","0.0-5.0-0.1-2.1-2.10","5c71b17c891e3200012477a2","","","","","","null","<img class='card_left' src='images/old/19.jpg'><div class=""fixation"">+</div>","null","","practice","choice","0","0","2","","","","","","","","",""
"html-keyboard-response","89","388051","0.0-5.0-0.1-2.1-3.10","5c71b17c891e3200012477a2","","","","","","null","<img class='card_left' src='images/old/19.jpg'><img class=reward src='images/zero_coins.png'>","null","","practice","reward","0","","","0","","","","","","","",""
"html-keyboard-response","90","388962","0.0-5.0-0.1-2.1-0.11","5c71b17c891e3200012477a2","","","","","","null","<div class=""fixation"">+</div>","null","","","","","","","","","","","","","","",""
"html-keyboard-response","91","389387","0.0-5.0-0.1-2.1-1.11","5c71b17c891e3200012477a2","","","","","","425","<img class='card_left' src='images/old/17.jpeg'><img class='card_right' src='images/old/18.jpg'><div class=""fixation"">+</div>","k","","practice","cards","0","","","","","","","","","","",""
"html-keyboard-response","92","389889","0.0-5.0-0.1-2.1-2.11","5c71b17c891e3200012477a2","","","","","","null","<img class='card_right' src='images/old/18.jpg'><div class=""fixation"">+</div>","null","","practice","choice","0","1","1","","","","","","","","",""
"html-keyboard-response","93","390648","0.0-5.0-0.1-2.1-3.11","5c71b17c891e3200012477a2","","","","","","null","<img class='card_right' src='images/old/18.jpg'><img class=reward src='images/zero_coins.png'>","null","","practice","reward","0","","","0","","","","","","","",""
"html-keyboard-response","94","391557","0.0-5.0-0.1-2.1-0.12","5c71b17c891e3200012477a2","","","","","","null","<div class=""fixation"">+</div>","null","","","","","","","","","","","","","","",""
"html-keyboard-response","95","392163","0.0-5.0-0.1-2.1-1.12","5c71b17c891e3200012477a2","","","","","","605","<img class='card_left' src='images/old/20.jpg'><img class='card_right' src='images/old/19.jpg'><div class=""fixation"">+</div>","k","","practice","cards","0","","","","","","","","","","",""
"html-keyboard-response","96","392672","0.0-5.0-0.1-2.1-2.12","5c71b17c891e3200012477a2","","","","","","null","<img class='card_right' src='images/old/19.jpg'><div class=""fixation"">+</div>","null","","practice","choice","0","1","2","","","","","","","","",""
"html-keyboard-response","97","393431","0.0-5.0-0.1-2.1-3.12","5c71b17c891e3200012477a2","","","","","","null","<img class='card_right' src='images/old/19.jpg'><img class=reward src='images/zero_coins.png'>","null","","practice","reward","0","","","0","","","","","","","",""
"html-keyboard-response","98","394341","0.0-5.0-0.1-2.1-0.13","5c71b17c891e3200012477a2","","","","","","null","<div class=""fixation"">+</div>","null","","","","","","","","","","","","","","",""
"html-keyboard-response","99","394859","0.0-5.0-0.1-2.1-1.13","5c71b17c891e3200012477a2","","","","","","516","<img class='card_left' src='images/old/17.jpeg'><img class='card_right' src='images/old/18.jpg'><div class=""fixation"">+</div>","k","","practice","cards","0","","","","","","","","","","",""
"html-keyboard-response","100","395360","0.0-5.0-0.1-2.1-2.13","5c71b17c891e3200012477a2","","","","","","null","<img class='card_right' src='images/old/18.jpg'><div class=""fixation"">+</div>","null","","practice","choice","0","1","1","","","","","","","","",""
"html-keyboard-response","101","396118","0.0-5.0-0.1-2.1-3.13","5c71b17c891e3200012477a2","","","","","","null","<img class='card_right' src='images/old/18.jpg'><img class=reward src='images/won1-no-back1.png'>","null","","practice","reward","0","","","1","","","","","","","",""
"html-keyboard-response","102","397028","0.0-5.0-0.1-2.1-0.14","5c71b17c891e3200012477a2","","","","","","null","<div class=""fixation"">+</div>","null","","","","","","","","","","","","","","",""
"html-keyboard-response","103","398340","0.0-5.0-0.1-2.1-1.14","5c71b17c891e3200012477a2","","","","","","1311","<img class='card_left' src='images/old/20.jpg'><img class='card_right' src='images/old/19.jpg'><div class=""fixation"">+</div>","k","","practice","cards","0","","","","","","","","","","",""
"html-keyboard-response","104","398851","0.0-5.0-0.1-2.1-2.14","5c71b17c891e3200012477a2","","","","","","null","<img class='card_right' src='images/old/19.jpg'><div class=""fixation"">+</div>","null","","practice","choice","0","1","2","","","","","","","","",""
"html-keyboard-response","105","399610","0.0-5.0-0.1-2.1-3.14","5c71b17c891e3200012477a2","","","","","","null","<img class='card_right' src='images/old/19.jpg'><img class=reward src='images/won1-no-back1.png'>","null","","practice","reward","0","","","1","","","","","","","",""
"html-keyboard-response","106","400523","0.0-5.0-0.1-2.1-0.15","5c71b17c891e3200012477a2","","","","","","null","<div class=""fixation"">+</div>","null","","","","","","","","","","","","","","",""
"html-keyboard-response","107","401092","0.0-5.0-0.1-2.1-1.15","5c71b17c891e3200012477a2","","","","","","568","<img class='card_left' src='images/old/17.jpeg'><img class='card_right' src='images/old/18.jpg'><div class=""fixation"">+</div>","k","","practice","cards","0","","","","","","","","","","",""
"html-keyboard-response","108","401606","0.0-5.0-0.1-2.1-2.15","5c71b17c891e3200012477a2","","","","","","null","<img class='card_right' src='images/old/18.jpg'><div class=""fixation"">+</div>","null","","practice","choice","0","1","1","","","","","","","","",""
"html-keyboard-response","109","402366","0.0-5.0-0.1-2.1-3.15","5c71b17c891e3200012477a2","","","","","","null","<img class='card_right' src='images/old/18.jpg'><img class=reward src='images/zero_coins.png'>","null","","practice","reward","0","","","0","","","","","","","",""
"instructions","110","430344","0.0-5.0-0.1-3.1","5c71b17c891e3200012477a2","","","","","","27978","","","[{""page_index"":0,""viewing_time"":7409},{""page_index"":1,""viewing_time"":7528},{""page_index"":2,""viewing_time"":10831},{""page_index"":3,""viewing_time"":2209}]","","","","","","","","","","","","","",""
"html-keyboard-response","111","432411","0.0-5.0-0.1-4.1","5c71b17c891e3200012477a2","","","","","","2066","<div>We will now start a few practice trials with both the cards and the shapes. <br> Please be ready with your fingers on <b>'S'</b> and <b>'K'</b>. <br><br> <b> Press any key to begin</b></div>","s","","","","","","","","","","","","","","",""
"html-keyboard-response","112","434327","0.0-5.0-0.1-5.1-0.8","5c71b17c891e3200012477a2","","","","","","null","<div class=""fixation"">+</div>","null","","","","","","","","","","","","","","",""
"html-keyboard-response","113","435004","0.0-5.0-0.1-5.1-1.8","5c71b17c891e3200012477a2","","","","","","676","<img class='card_left' src='images/old/18.jpg'><img class='card_right' src='images/old/17.jpeg'><div class=""fixation"">+</div>","s","","practice","cards","0","","","","","","","","","","",""
"html-keyboard-response","114","435510","0.0-5.0-0.1-5.1-2.8","5c71b17c891e3200012477a2","","","","","","null","<img class='card_left' src='images/old/18.jpg'><div class=""fixation"">+</div>","null","","practice","choice","0","0","1","","","","","","","","",""
"html-keyboard-response","115","436264","0.0-5.0-0.1-5.1-3.8","5c71b17c891e3200012477a2","","","","","","null","<img class='card_left' src='images/old/18.jpg'><img class=reward src='images/zero_coins.png'>","null","","practice","reward","0","","","0","","","","","","","",""
"html-keyboard-response","116","437170","0.0-5.0-0.1-5.1-0.9","5c71b17c891e3200012477a2","","","","","","null","<div class=""fixation"">+</div>","null","","","","","","","","","","","","","","",""
"html-keyboard-response","117","438172","0.0-5.0-0.1-5.1-1.9","5c71b17c891e3200012477a2","","","","","","1001","<img class='card_left' src='images/practice_catch_trials/2.png'><img class=surprise src='images/surprise.jpg'><img class='card_right' src='images/practice_catch_trials/3.png'>","k","","practice","cards","0","","","","","","","","","","",""
"html-keyboard-response","118","438678","0.0-5.0-0.1-5.1-2.9","5c71b17c891e3200012477a2","","","","","","null","<img class='card_right' src='images/practice_catch_trials/3.png'><img class=surprise src='images/surprise.jpg'>","null","","practice","choice","0","1","-1","","","","","","","","",""
"html-keyboard-response","119","439432","0.0-5.0-0.1-5.1-3.9","5c71b17c891e3200012477a2","","","","","","null","<img class='card_right' src='images/practice_catch_trials/3.png'><img class=surprise src='images/surprise.jpg'>","null","","practice","reward","0","","","0","","","","","","","",""
"html-keyboard-response","120","440342","0.0-5.0-0.1-5.1-0.10","5c71b17c891e3200012477a2","","","","","","null","<div class=""fixation"">+</div>","null","","","","","","","","","","","","","","",""
"html-keyboard-response","121","441172","0.0-5.0-0.1-5.1-1.10","5c71b17c891e3200012477a2","","","","","","829","<img class='card_left' src='images/old/20.jpg'><img class='card_right' src='images/old/19.jpg'><div class=""fixation"">+</div>","k","","practice","cards","0","","","","","","","","","","",""
"html-keyboard-response","122","441684","0.0-5.0-0.1-5.1-2.10","5c71b17c891e3200012477a2","","","","","","null","<img class='card_right' src='images/old/19.jpg'><div class=""fixation"">+</div>","null","","practice","choice","0","1","2","","","","","","","","",""
"html-keyboard-response","123","442442","0.0-5.0-0.1-5.1-3.10","5c71b17c891e3200012477a2","","","","","","null","<img class='card_right' src='images/old/19.jpg'><img class=reward src='images/zero_coins.png'>","null","","practice","reward","0","","","0","","","","","","","",""
"html-keyboard-response","124","443358","0.0-5.0-0.1-5.1-0.11","5c71b17c891e3200012477a2","","","","","","null","<div class=""fixation"">+</div>","null","","","","","","","","","","","","","","",""
"html-keyboard-response","125","443793","0.0-5.0-0.1-5.1-1.11","5c71b17c891e3200012477a2","","","","","","435","<img class='card_left' src='images/old/20.jpg'><img class='card_right' src='images/old/19.jpg'><div class=""fixation"">+</div>","k","","practice","cards","0","","","","","","","","","","",""
"html-keyboard-response","126","444300","0.0-5.0-0.1-5.1-2.11","5c71b17c891e3200012477a2","","","","","","null","<img class='card_right' src='images/old/19.jpg'><div class=""fixation"">+</div>","null","","practice","choice","0","1","2","","","","","","","","",""
"html-keyboard-response","127","445056","0.0-5.0-0.1-5.1-3.11","5c71b17c891e3200012477a2","","","","","","null","<img class='card_right' src='images/old/19.jpg'><img class=reward src='images/zero_coins.png'>","null","","practice","reward","0","","","0","","","","","","","",""
"html-keyboard-response","128","445968","0.0-5.0-0.1-5.1-0.12","5c71b17c891e3200012477a2","","","","","","null","<div class=""fixation"">+</div>","null","","","","","","","","","","","","","","",""
"html-keyboard-response","129","446745","0.0-5.0-0.1-5.1-1.12","5c71b17c891e3200012477a2","","","","","","775","<img class='card_left' src='images/practice_catch_trials/4.png'><img class=surprise src='images/surprise.jpg'><img class='card_right' src='images/practice_catch_trials/1.png'>","s","","practice","cards","0","","","","","","","","","","",""
"html-keyboard-response","130","447252","0.0-5.0-0.1-5.1-2.12","5c71b17c891e3200012477a2","","","","","","null","<img class='card_left' src='images/practice_catch_trials/4.png'><img class=surprise src='images/surprise.jpg'>","null","","practice","choice","0","0","-1","","","","","","","","",""
"html-keyboard-response","131","448011","0.0-5.0-0.1-5.1-3.12","5c71b17c891e3200012477a2","","","","","","null","<img class='card_left' src='images/practice_catch_trials/4.png'><img class=surprise src='images/surprise.jpg'>","null","","practice","reward","0","","","0","","","","","","","",""
"html-keyboard-response","132","448920","0.0-5.0-0.1-5.1-0.13","5c71b17c891e3200012477a2","","","","","","null","<div class=""fixation"">+</div>","null","","","","","","","","","","","","","","",""
"html-keyboard-response","133","449717","0.0-5.0-0.1-5.1-1.13","5c71b17c891e3200012477a2","","","","","","795","<img class='card_left' src='images/old/18.jpg'><img class='card_right' src='images/old/17.jpeg'><div class=""fixation"">+</div>","s","","practice","cards","0","","","","","","","","","","",""
"html-keyboard-response","134","450223","0.0-5.0-0.1-5.1-2.13","5c71b17c891e3200012477a2","","","","","","null","<img class='card_left' src='images/old/18.jpg'><div class=""fixation"">+</div>","null","","practice","choice","0","0","1","","","","","","","","",""
"html-keyboard-response","135","450977","0.0-5.0-0.1-5.1-3.13","5c71b17c891e3200012477a2","","","","","","null","<img class='card_left' src='images/old/18.jpg'><img class=reward src='images/zero_coins.png'>","null","","practice","reward","0","","","0","","","","","","","",""
"html-keyboard-response","136","451882","0.0-5.0-0.1-5.1-0.14","5c71b17c891e3200012477a2","","","","","","null","<div class=""fixation"">+</div>","null","","","","","","","","","","","","","","",""
"html-keyboard-response","137","452965","0.0-5.0-0.1-5.1-1.14","5c71b17c891e3200012477a2","","","","","","1081","<img class='card_left' src='undefined'><img class=surprise src='images/surprise.jpg'><img class='card_right' src='undefined'>","k","","practice","cards","0","","","","","","","","","","",""
"html-keyboard-response","138","453473","0.0-5.0-0.1-5.1-2.14","5c71b17c891e3200012477a2","","","","","","null","<img class='card_right' src='undefined'><div class=""fixation"">+</div>","null","","practice","choice","0","1","-1","","","","","","","","",""
"html-keyboard-response","139","454231","0.0-5.0-0.1-5.1-3.14","5c71b17c891e3200012477a2","","","","","","null","<img class='card_right' src='undefined'><img class=reward src='images/zero_coins.png'>","null","","practice","reward","0","","","0","","","","","","","",""
"html-keyboard-response","140","455136","0.0-5.0-0.1-5.1-0.15","5c71b17c891e3200012477a2","","","","","","null","<div class=""fixation"">+</div>","null","","","","","","","","","","","","","","",""
"html-keyboard-response","141","455616","0.0-5.0-0.1-5.1-1.15","5c71b17c891e3200012477a2","","","","","","478","<img class='card_left' src='undefined'><img class=surprise src='images/surprise.jpg'><img class='card_right' src='undefined'>","k","","practice","cards","0","","","","","","","","","","",""
"html-keyboard-response","142","456122","0.0-5.0-0.1-5.1-2.15","5c71b17c891e3200012477a2","","","","","","null","<img class='card_right' src='undefined'><div class=""fixation"">+</div>","null","","practice","choice","0","1","-1","","","","","","","","",""
"html-keyboard-response","143","456881","0.0-5.0-0.1-5.1-3.15","5c71b17c891e3200012477a2","","","","","","null","<img class='card_right' src='undefined'><img class=reward src='images/zero_coins.png'>","null","","practice","reward","0","","","0","","","","","","","",""
"html-keyboard-response","144","459653","0.0-5.0-0.1-6.1","5c71b17c891e3200012477a2","","","","","","2771","<p> <br><br> You will now move on to a quick quiz to make sure you understood the instructions. If you make a mistake, you will need to go through the instructions again. <br><br> <b> Press any key to continue</b></p>","s","","","","","","","","","","","","","","",""
"survey-multi-choice","145","497427","0.0-5.0-0.1-7.1","5c71b17c891e3200012477a2","","","","","","37772","","{""deck_size"":""4"",""cards_step"":""2"",""choose_card"":""Press the 'S' or 'K' key with your LEFT or RIGHT hand."",""better_cards"":""True"",""value_change"":""False"",""value_independence"":""False"",""location_value"":""False - you won't win more or less using RIGHT or LEFT response keys. Only the cards are related to your chance of winning."",""reward_announce"":""At the end of each part of the experiment"",""shapes_repeated"":""True""}","","","","","","","","[0,1,2,3,4,5,6,7,8]","","","","","","",""
"html-keyboard-response","146","499497","0.0-5.0-1.0","5c71b17c891e3200012477a2","","","","","","2070","<div> Good job! Practice completed. <br> <br> We will now move on to the real game. Do your best to figure out which cards are better. Good luck!<br><br> <b>Press any key to continue.</b></div>"," ","","","","","","","","","","","","","","",""
"html-keyboard-response","147","503523","0.0-5.0-2.0-0.0","5c71b17c891e3200012477a2","","","","","","3018","<p><b><u> Part 1 out of 4</u></b></p><p style=""text-align: left""> You will now start a test block. Below are the four cards that can appear in this round.</p><p style='text-align: left'>Use the LEFT or RIGHT response keys ('S' or 'K', in correspondence) to make your selection. <br> Please do your best to win as many coins as possible!<br> </p><p style=""text-align: left""><b>Remember that:</b> <br> 1) Only the cards (not the response key that was used to select them) are related to winning coins <br> 2) Coin winning chances are specific for each card </p><p><b>Press any key to start</b></p><img class=start src=""images/old/5.jpg"">  <img class=start src=""images/old/6.jpg"">    <img class=start src=""images/old/7.jpg"">    <img class=start src=""images/old/8.jpeg"">  ","meta","","","","","","","","","","","","","","",""
"html-keyboard-response","148","505426","0.0-5.0-2.0-1.0-0.0","5c71b17c891e3200012477a2","","","","","","null","<div class=""fixation"">+</div>","null","","","","","","","","","","","","","","",""
"html-keyboard-response","149","511444","0.0-5.0-2.0-1.0-1.0","5c71b17c891e3200012477a2","","","","","","null","<img class='card_left' src='images/old/7.jpg'><img class='card_right' src='images/old/8.jpeg'><div class=""fixation"">+</div>","null","","exp","cards","0","","","","","1","1","","","","",""
"html-keyboard-response","150","511950","0.0-5.0-2.0-1.0-2.0","5c71b17c891e3200012477a2","","","","","","null","<div style=""font-size:40px;"">Please respond faster!</div>","null","","exp","choice","0","null","","","","1","1","","","","",""
"html-keyboard-response","151","512705","0.0-5.0-2.0-1.0-3.0","5c71b17c891e3200012477a2","","","","","","null","<div style=""font-size:40px;"">Please respond faster!</div>","null","","exp","reward","0","null","","0","","1","1","0","","","",""
"html-keyboard-response","152","513616","0.0-5.0-2.0-1.0-0.1","5c71b17c891e3200012477a2","","","","","","null","<div class=""fixation"">+</div>","null","","","","","","","","","","","","","","",""
"html-keyboard-response","153","514240","0.0-5.0-2.0-1.0-1.1","5c71b17c891e3200012477a2","","","","","","623","<img class='card_left' src='images/old/5.jpg'><img class='card_right' src='images/old/6.jpg'><div class=""fixation"">+</div>","k","","exp","cards","1","","","","","0","1","","","","",""
"html-keyboard-response","154","514744","0.0-5.0-2.0-1.0-2.1","5c71b17c891e3200012477a2","","","","","","null","<img class='card_right' src='images/old/6.jpg'><div class=""fixation"">+</div>","null","","exp","choice","1","1","1","","","0","1","","1","0","",""
"html-keyboard-response","155","515501","0.0-5.0-2.0-1.0-3.1","5c71b17c891e3200012477a2","","","","","","null","<img class='card_right' src='images/old/6.jpg'><img class=reward src='images/won1-no-back1.png'>","null","","exp","reward","1","1","1","1","","0","1","0","1","0","0.75","0.65"
"html-keyboard-response","156","516413","0.0-5.0-2.0-1.0-0.2","5c71b17c891e3200012477a2","","","","","","null","<div class=""fixation"">+</div>","null","","","","","","","","","","","","","","",""
"html-keyboard-response","157","516752","0.0-5.0-2.0-1.0-1.2","5c71b17c891e3200012477a2","","","","","","338","<img class='card_left' src='images/old/5.jpg'><img class='card_right' src='images/old/6.jpg'><div class=""fixation"">+</div>","k","","exp","cards","2","","","","","0","1","","","","",""
"html-keyboard-response","158","517264","0.0-5.0-2.0-1.0-2.2","5c71b17c891e3200012477a2","","","","","","null","<img class='card_right' src='images/old/6.jpg'><div class=""fixation"">+</div>","null","","exp","choice","2","1","1","","","0","1","","1","0","",""
"html-keyboard-response","159","518020","0.0-5.0-2.0-1.0-3.2","5c71b17c891e3200012477a2","","","","","","null","<img class='card_right' src='images/old/6.jpg'><img class=reward src='images/won1-no-back1.png'>","null","","exp","reward","2","1","1","1","","0","1","0","1","0","0.75","0.65"
"html-keyboard-response","160","518934","0.0-5.0-2.0-1.0-0.3","5c71b17c891e3200012477a2","","","","","","null","<div class=""fixation"">+</div>","null","","","","","","","","","","","","","","",""
"html-keyboard-response","161","519248","0.0-5.0-2.0-1.0-1.3","5c71b17c891e3200012477a2","","","","","","313","<img class='card_left' src='images/old/5.jpg'><img class='card_right' src='images/old/6.jpg'><div class=""fixation"">+</div>","k","","exp","cards","3","","","","","0","1","","","","",""
"html-keyboard-response","162","519757","0.0-5.0-2.0-1.0-2.3","5c71b17c891e3200012477a2","","","","","","null","<img class='card_right' src='images/old/6.jpg'><div class=""fixation"">+</div>","null","","exp","choice","3","1","1","","","0","1","","1","0","",""
"html-keyboard-response","163","520521","0.0-5.0-2.0-1.0-3.3","5c71b17c891e3200012477a2","","","","","","null","<img class='card_right' src='images/old/6.jpg'><img class=reward src='images/zero_coins.png'>","null","","exp","reward","3","1","1","0","","0","1","0","1","0","0.75","0.65"
"html-keyboard-response","164","521434","0.0-5.0-2.0-1.0-0.4","5c71b17c891e3200012477a2","","","","","","null","<div class=""fixation"">+</div>","null","","","","","","","","","","","","","","",""
"html-keyboard-response","165","522109","0.0-5.0-2.0-1.0-1.4","5c71b17c891e3200012477a2","","","","","","673","<img class='card_left' src='images/catch_trial/29.jpg'><img class=surprise src='images/surprise.jpg'><img class='card_right' src='images/catch_trial/9.jpg'>","k","","exp","cards","4","","","","","2","1","","","","",""
"html-keyboard-response","166","522625","0.0-5.0-2.0-1.0-2.4","5c71b17c891e3200012477a2","","","","","","null","<img class='card_right' src='images/catch_trial/9.jpg'><img class=surprise src='images/surprise.jpg'>","null","","exp","choice","4","1","1","","","2","1","","1","0","",""
"html-keyboard-response","167","523385","0.0-5.0-2.0-1.0-3.4","5c71b17c891e3200012477a2","","","","","","null","<img class='card_right' src='images/catch_trial/9.jpg'><img class=surprise src='images/surprise.jpg'>","null","","exp","reward","4","1","1","1","","2","1","0","1","0","0.5","0.5"
"html-keyboard-response","168","524296","0.0-5.0-2.0-1.0-0.5","5c71b17c891e3200012477a2","","","","","","null","<div class=""fixation"">+</div>","null","","","","","","","","","","","","","","",""
"html-keyboard-response","169","524936","0.0-5.0-2.0-1.0-1.5","5c71b17c891e3200012477a2","","","","","","638","<img class='card_left' src='images/old/7.jpg'><img class='card_right' src='images/old/8.jpeg'><div class=""fixation"">+</div>","s","","exp","cards","5","","","","","1","1","","","","",""
"html-keyboard-response","170","525442","0.0-5.0-2.0-1.0-2.5","5c71b17c891e3200012477a2","","","","","","null","<img class='card_left' src='images/old/7.jpg'><div class=""fixation"">+</div>","null","","exp","choice","5","0","2","","","1","1","","3","2","",""
"html-keyboard-response","171","526199","0.0-5.0-2.0-1.0-3.5","5c71b17c891e3200012477a2","","","","","","null","<img class='card_left' src='images/old/7.jpg'><img class=reward src='images/zero_coins.png'>","null","","exp","reward","5","0","2","0","","1","1","0","3","2","0.65","0.75"
"html-keyboard-response","172","527114","0.0-5.0-2.0-1.0-0.6","5c71b17c891e3200012477a2","","","","","","null","<div class=""fixation"">+</div>","null","","","","","","","","","","","","","","",""
"html-keyboard-response","173","527640","0.0-5.0-2.0-1.0-1.6","5c71b17c891e3200012477a2","","","","","","525","<img class='card_left' src='images/old/6.jpg'><img class='card_right' src='images/old/5.jpg'><div class=""fixation"">+</div>","s","","exp","cards","6","","","","","0","1","","","","",""
"html-keyboard-response","174","528151","0.0-5.0-2.0-1.0-2.6","5c71b17c891e3200012477a2","","","","","","null","<img class='card_left' src='images/old/6.jpg'><div class=""fixation"">+</div>","null","","exp","choice","6","0","1","","","0","1","","0","1","",""
"html-keyboard-response","175","528910","0.0-5.0-2.0-1.0-3.6","5c71b17c891e3200012477a2","","","","","","null","<img class='card_left' src='images/old/6.jpg'><img class=reward src='images/won1-no-back1.png'>","null","","exp","reward","6","0","1","1","","0","1","0","0","1","0.75","0.65"
"html-keyboard-response","176","529818","0.0-5.0-2.0-1.0-0.7","5c71b17c891e3200012477a2","","","","","","null","<div class=""fixation"">+</div>","null","","","","","","","","","","","","","","",""
"html-keyboard-response","177","530435","0.0-5.0-2.0-1.0-1.7","5c71b17c891e3200012477a2","","","","","","616","<img class='card_left' src='images/catch_trial/47.jpg'><img class=surprise src='images/surprise.jpg'><img class='card_right' src='images/catch_trial/34.jpg'>","s","","exp","cards","7","","","","","2","1","","","","",""
"html-keyboard-response","178","530947","0.0-5.0-2.0-1.0-2.7","5c71b17c891e3200012477a2","","","","","","null","<img class='card_left' src='images/catch_trial/47.jpg'><img class=surprise src='images/surprise.jpg'>","null","","exp","choice","7","0","2","","","2","1","","3","2","",""
"html-keyboard-response","179","531705","0.0-5.0-2.0-1.0-3.7","5c71b17c891e3200012477a2","","","","","","null","<img class='card_left' src='images/catch_trial/47.jpg'><img class=surprise src='images/surprise.jpg'>","null","","exp","reward","7","0","2","0","","2","1","0","3","2","0.5","0.5"
"html-keyboard-response","180","532616","0.0-5.0-2.0-1.0-0.8","5c71b17c891e3200012477a2","","","","","","null","<div class=""fixation"">+</div>","null","","","","","","","","","","","","","","",""
"html-keyboard-response","181","533116","0.0-5.0-2.0-1.0-1.8","5c71b17c891e3200012477a2","","","","","","499","<img class='card_left' src='images/old/7.jpg'><img class='card_right' src='images/old/8.jpeg'><div class=""fixation"">+</div>","s","","exp","cards","8","","","","","1","1","","","","",""
"html-keyboard-response","182","533620","0.0-5.0-2.0-1.0-2.8","5c71b17c891e3200012477a2","","","","","","null","<img class='card_left' src='images/old/7.jpg'><div class=""fixation"">+</div>","null","","exp","choice","8","0","2","","","1","1","","3","2","",""
"html-keyboard-response","183","534382","0.0-5.0-2.0-1.0-3.8","5c71b17c891e3200012477a2","","","","","","null","<img class='card_left' src='images/old/7.jpg'><img class=reward src='images/won1-no-back1.png'>","null","","exp","reward","8","0","2","1","","1","1","0","3","2","0.65","0.75"
"html-keyboard-response","184","535294","0.0-5.0-2.0-1.0-0.9","5c71b17c891e3200012477a2","","","","","","null","<div class=""fixation"">+</div>","null","","","","","","","","","","","","","","",""
"html-keyboard-response","185","535758","0.0-5.0-2.0-1.0-1.9","5c71b17c891e3200012477a2","","","","","","463","<img class='card_left' src='images/old/6.jpg'><img class='card_right' src='images/old/5.jpg'><div class=""fixation"">+</div>","s","","exp","cards","9","","","","","0","1","","","","",""
"html-keyboard-response","186","536270","0.0-5.0-2.0-1.0-2.9","5c71b17c891e3200012477a2","","","","","","null","<img class='card_left' src='images/old/6.jpg'><div class=""fixation"">+</div>","null","","exp","choice","9","0","1","","","0","1","","0","1","",""
"html-keyboard-response","187","537028","0.0-5.0-2.0-1.0-3.9","5c71b17c891e3200012477a2","","","","","","null","<img class='card_left' src='images/old/6.jpg'><img class=reward src='images/zero_coins.png'>","null","","exp","reward","9","0","1","0","","0","1","0","0","1","0.75","0.65"
"html-keyboard-response","188","537942","0.0-5.0-2.0-1.0-0.10","5c71b17c891e3200012477a2","","","","","","null","<div class=""fixation"">+</div>","null","","","","","","","","","","","","","","",""
"html-keyboard-response","189","538388","0.0-5.0-2.0-1.0-1.10","5c71b17c891e3200012477a2","","","","","","444","<img class='card_left' src='images/old/7.jpg'><img class='card_right' src='images/old/8.jpeg'><div class=""fixation"">+</div>","s","","exp","cards","10","","","","","1","1","","","","",""
"html-keyboard-response","190","538900","0.0-5.0-2.0-1.0-2.10","5c71b17c891e3200012477a2","","","","","","null","<img class='card_left' src='images/old/7.jpg'><div class=""fixation"">+</div>","null","","exp","choice","10","0","2","","","1","1","","3","2","",""
"html-keyboard-response","191","539657","0.0-5.0-2.0-1.0-3.10","5c71b17c891e3200012477a2","","","","","","null","<img class='card_left' src='images/old/7.jpg'><img class=reward src='images/won1-no-back1.png'>","null","","exp","reward","10","0","2","1","","1","1","0","3","2","0.65","0.75"
"html-keyboard-response","192","540565","0.0-5.0-2.0-1.0-0.11","5c71b17c891e3200012477a2","","","","","","null","<div class=""fixation"">+</div>","null","","","","","","","","","","","","","","",""
"html-keyboard-response","193","541086","0.0-5.0-2.0-1.0-1.11","5c71b17c891e3200012477a2","","","","","","520","<img class='card_left' src='images/old/5.jpg'><img class='card_right' src='images/old/6.jpg'><div class=""fixation"">+</div>","k","","exp","cards","11","","","","","0","1","","","","",""
"html-keyboard-response","194","541599","0.0-5.0-2.0-1.0-2.11","5c71b17c891e3200012477a2","","","","","","null","<img class='card_right' src='images/old/6.jpg'><div class=""fixation"">+</div>","null","","exp","choice","11","1","1","","","0","1","","1","0","",""
"html-keyboard-response","195","542354","0.0-5.0-2.0-1.0-3.11","5c71b17c891e3200012477a2","","","","","","null","<img class='card_right' src='images/old/6.jpg'><img class=reward src='images/won1-no-back1.png'>","null","","exp","reward","11","1","1","1","","0","1","0","1","0","0.75","0.65"
"html-keyboard-response","196","543267","0.0-5.0-2.0-1.0-0.12","5c71b17c891e3200012477a2","","","","","","null","<div class=""fixation"">+</div>","null","","","","","","","","","","","","","","",""
"html-keyboard-response","197","543648","0.0-5.0-2.0-1.0-1.12","5c71b17c891e3200012477a2","","","","","","380","<img class='card_left' src='images/old/5.jpg'><img class='card_right' src='images/old/6.jpg'><div class=""fixation"">+</div>","k","","exp","cards","12","","","","","0","1","","","","",""
"html-keyboard-response","198","544158","0.0-5.0-2.0-1.0-2.12","5c71b17c891e3200012477a2","","","","","","null","<img class='card_right' src='images/old/6.jpg'><div class=""fixation"">+</div>","null","","exp","choice","12","1","1","","","0","1","","1","0","",""
"html-keyboard-response","199","544916","0.0-5.0-2.0-1.0-3.12","5c71b17c891e3200012477a2","","","","","","null","<img class='card_right' src='images/old/6.jpg'><img class=reward src='images/won1-no-back1.png'>","null","","exp","reward","12","1","1","1","","0","1","0","1","0","0.75","0.65"
"html-keyboard-response","200","545829","0.0-5.0-2.0-1.0-0.13","5c71b17c891e3200012477a2","","","","","","null","<div class=""fixation"">+</div>","null","","","","","","","","","","","","","","",""
"html-keyboard-response","201","546706","0.0-5.0-2.0-1.0-1.13","5c71b17c891e3200012477a2","","","","","","876","<img class='card_left' src='images/old/8.jpeg'><img class='card_right' src='images/old/7.jpg'><div class=""fixation"">+</div>","k","","exp","cards","13","","","","","1","1","","","","",""
"html-keyboard-response","202","547221","0.0-5.0-2.0-1.0-2.13","5c71b17c891e3200012477a2","","","","","","null","<img class='card_right' src='images/old/7.jpg'><div class=""fixation"">+</div>","null","","exp","choice","13","1","2","","","1","1","","2","3","",""
"html-keyboard-response","203","547975","0.0-5.0-2.0-1.0-3.13","5c71b17c891e3200012477a2","","","","","","null","<img class='card_right' src='images/old/7.jpg'><img class=reward src='images/won1-no-back1.png'>","null","","exp","reward","13","1","2","1","","1","1","0","2","3","0.65","0.75"
"html-keyboard-response","204","548890","0.0-5.0-2.0-1.0-0.14","5c71b17c891e3200012477a2","","","","","","null","<div class=""fixation"">+</div>","null","","","","","","","","","","","","","","",""
"html-keyboard-response","205","549351","0.0-5.0-2.0-1.0-1.14","5c71b17c891e3200012477a2","","","","","","460","<img class='card_left' src='images/old/7.jpg'><img class='card_right' src='images/old/8.jpeg'><div class=""fixation"">+</div>","s","","exp","cards","14","","","","","1","1","","","","",""
"html-keyboard-response","206","549853","0.0-5.0-2.0-1.0-2.14","5c71b17c891e3200012477a2","","","","","","null","<img class='card_left' src='images/old/7.jpg'><div class=""fixation"">+</div>","null","","exp","choice","14","0","2","","","1","1","","3","2","",""
"html-keyboard-response","207","550615","0.0-5.0-2.0-1.0-3.14","5c71b17c891e3200012477a2","","","","","","null","<img class='card_left' src='images/old/7.jpg'><img class=reward src='images/won1-no-back1.png'>","null","","exp","reward","14","0","2","1","","1","1","0","3","2","0.65","0.75"
"html-keyboard-response","208","551525","0.0-5.0-2.0-1.0-0.15","5c71b17c891e3200012477a2","","","","","","null","<div class=""fixation"">+</div>","null","","","","","","","","","","","","","","",""
"html-keyboard-response","209","552105","0.0-5.0-2.0-1.0-1.15","5c71b17c891e3200012477a2","","","","","","580","<img class='card_left' src='images/old/8.jpeg'><img class='card_right' src='images/old/7.jpg'><div class=""fixation"">+</div>","k","","exp","cards","15","","","","","1","1","","","","",""
"html-keyboard-response","210","552608","0.0-5.0-2.0-1.0-2.15","5c71b17c891e3200012477a2","","","","","","null","<img class='card_right' src='images/old/7.jpg'><div class=""fixation"">+</div>","null","","exp","choice","15","1","2","","","1","1","","2","3","",""
"html-keyboard-response","211","553364","0.0-5.0-2.0-1.0-3.15","5c71b17c891e3200012477a2","","","","","","null","<img class='card_right' src='images/old/7.jpg'><img class=reward src='images/zero_coins.png'>","null","","exp","reward","15","1","2","0","","1","1","0","2","3","0.65","0.75"
"html-keyboard-response","212","554277","0.0-5.0-2.0-1.0-0.16","5c71b17c891e3200012477a2","","","","","","null","<div class=""fixation"">+</div>","null","","","","","","","","","","","","","","",""
"html-keyboard-response","213","554903","0.0-5.0-2.0-1.0-1.16","5c71b17c891e3200012477a2","","","","","","625","<img class='card_left' src='images/catch_trial/11.jpg'><img class=surprise src='images/surprise.jpg'><img class='card_right' src='images/catch_trial/62.jpg'>","s","","exp","cards","16","","","","","2","1","","","","",""
"html-keyboard-response","214","555405","0.0-5.0-2.0-1.0-2.16","5c71b17c891e3200012477a2","","","","","","null","<img class='card_left' src='images/catch_trial/11.jpg'><img class=surprise src='images/surprise.jpg'>","null","","exp","choice","16","0","4","","","2","1","","5","4","",""
"html-keyboard-response","215","556170","0.0-5.0-2.0-1.0-3.16","5c71b17c891e3200012477a2","","","","","","null","<img class='card_left' src='images/catch_trial/11.jpg'><img class=surprise src='images/surprise.jpg'>","null","","exp","reward","16","0","4","1","","2","1","0","5","4","0.5","0.5"
"html-keyboard-response","216","557075","0.0-5.0-2.0-1.0-0.17","5c71b17c891e3200012477a2","","","","","","null","<div class=""fixation"">+</div>","null","","","","","","","","","","","","","","",""
"html-keyboard-response","217","557619","0.0-5.0-2.0-1.0-1.17","5c71b17c891e3200012477a2","","","","","","542","<img class='card_left' src='images/old/7.jpg'><img class='card_right' src='images/old/8.jpeg'><div class=""fixation"">+</div>","s","","exp","cards","17","","","","","1","1","","","","",""
"html-keyboard-response","218","558122","0.0-5.0-2.0-1.0-2.17","5c71b17c891e3200012477a2","","","","","","null","<img class='card_left' src='images/old/7.jpg'><div class=""fixation"">+</div>","null","","exp","choice","17","0","2","","","1","1","","3","2","",""
"html-keyboard-response","219","558875","0.0-5.0-2.0-1.0-3.17","5c71b17c891e3200012477a2","","","","","","null","<img class='card_left' src='images/old/7.jpg'><img class=reward src='images/zero_coins.png'>","null","","exp","reward","17","0","2","0","","1","1","0","3","2","0.65","0.75"
"html-keyboard-response","220","559783","0.0-5.0-2.0-1.0-0.18","5c71b17c891e3200012477a2","","","","","","null","<div class=""fixation"">+</div>","null","","","","","","","","","","","","","","",""
"html-keyboard-response","221","560447","0.0-5.0-2.0-1.0-1.18","5c71b17c891e3200012477a2","","","","","","662","<img class='card_left' src='images/catch_trial/20.jpg'><img class=surprise src='images/surprise.jpg'><img class='card_right' src='images/catch_trial/30.jpg'>","k","","exp","cards","18","","","","","2","1","","","","",""
"html-keyboard-response","222","560961","0.0-5.0-2.0-1.0-2.18","5c71b17c891e3200012477a2","","","","","","null","<img class='card_right' src='images/catch_trial/30.jpg'><img class=surprise src='images/surprise.jpg'>","null","","exp","choice","18","1","7","","","2","1","","7","6","",""
"html-keyboard-response","223","561712","0.0-5.0-2.0-1.0-3.18","5c71b17c891e3200012477a2","","","","","","null","<img class='card_right' src='images/catch_trial/30.jpg'><img class=surprise src='images/surprise.jpg'>","null","","exp","reward","18","1","7","0","","2","1","0","7","6","0.5","0.5"
"html-keyboard-response","224","562617","0.0-5.0-2.0-1.0-0.19","5c71b17c891e3200012477a2","","","","","","null","<div class=""fixation"">+</div>","null","","","","","","","","","","","","","","",""
"html-keyboard-response","225","563031","0.0-5.0-2.0-1.0-1.19","5c71b17c891e3200012477a2","","","","","","412","<img class='card_left' src='images/old/6.jpg'><img class='card_right' src='images/old/5.jpg'><div class=""fixation"">+</div>","s","","exp","cards","19","","","","","0","1","","","","",""
"html-keyboard-response","226","563543","0.0-5.0-2.0-1.0-2.19","5c71b17c891e3200012477a2","","","","","","null","<img class='card_left' src='images/old/6.jpg'><div class=""fixation"">+</div>","null","","exp","choice","19","0","1","","","0","1","","0","1","",""
"html-keyboard-response","227","564301","0.0-5.0-2.0-1.0-3.19","5c71b17c891e3200012477a2","","","","","","null","<img class='card_left' src='images/old/6.jpg'><img class=reward src='images/zero_coins.png'>","null","","exp","reward","19","0","1","0","","0","1","0","0","1","0.75","0.65"
"html-keyboard-response","228","565209","0.0-5.0-2.0-1.0-0.20","5c71b17c891e3200012477a2","","","","","","null","<div class=""fixation"">+</div>","null","","","","","","","","","","","","","","",""
"html-keyboard-response","229","565578","0.0-5.0-2.0-1.0-1.20","5c71b17c891e3200012477a2","","","","","","368","<img class='card_left' src='images/old/5.jpg'><img class='card_right' src='images/old/6.jpg'><div class=""fixation"">+</div>","k","","exp","cards","20","","","","","0","1","","","","",""
"html-keyboard-response","230","566088","0.0-5.0-2.0-1.0-2.20","5c71b17c891e3200012477a2","","","","","","null","<img class='card_right' src='images/old/6.jpg'><div class=""fixation"">+</div>","null","","exp","choice","20","1","1","","","0","1","","1","0","",""
"html-keyboard-response","231","566846","0.0-5.0-2.0-1.0-3.20","5c71b17c891e3200012477a2","","","","","","null","<img class='card_right' src='images/old/6.jpg'><img class=reward src='images/won1-no-back1.png'>","null","","exp","reward","20","1","1","1","","0","1","0","1","0","0.75","0.65"
"html-keyboard-response","232","567755","0.0-5.0-2.0-1.0-0.21","5c71b17c891e3200012477a2","","","","","","null","<div class=""fixation"">+</div>","null","","","","","","","","","","","","","","",""
"html-keyboard-response","233","568349","0.0-5.0-2.0-1.0-1.21","5c71b17c891e3200012477a2","","","","","","593","<img class='card_left' src='images/catch_trial/56.jpg'><img class=surprise src='images/surprise.jpg'><img class='card_right' src='images/catch_trial/60.jpg'>","k","","exp","cards","21","","","","","2","1","","","","",""
"html-keyboard-response","234","568853","0.0-5.0-2.0-1.0-2.21","5c71b17c891e3200012477a2","","","","","","null","<img class='card_right' src='images/catch_trial/60.jpg'><img class=surprise src='images/surprise.jpg'>","null","","exp","choice","21","1","9","","","2","1","","9","8","",""
"html-keyboard-response","235","569607","0.0-5.0-2.0-1.0-3.21","5c71b17c891e3200012477a2","","","","","","null","<img class='card_right' src='images/catch_trial/60.jpg'><img class=surprise src='images/surprise.jpg'>","null","","exp","reward","21","1","9","0","","2","1","0","9","8","0.5","0.5"
"html-keyboard-response","236","570521","0.0-5.0-2.0-1.0-0.22","5c71b17c891e3200012477a2","","","","","","null","<div class=""fixation"">+</div>","null","","","","","","","","","","","","","","",""
"html-keyboard-response","237","570962","0.0-5.0-2.0-1.0-1.22","5c71b17c891e3200012477a2","","","","","","440","<img class='card_left' src='images/old/5.jpg'><img class='card_right' src='images/old/6.jpg'><div class=""fixation"">+</div>","k","","exp","cards","22","","","","","0","1","","","","",""
"html-keyboard-response","238","571465","0.0-5.0-2.0-1.0-2.22","5c71b17c891e3200012477a2","","","","","","null","<img class='card_right' src='images/old/6.jpg'><div class=""fixation"">+</div>","null","","exp","choice","22","1","1","","","0","1","","1","0","",""
"html-keyboard-response","239","572223","0.0-5.0-2.0-1.0-3.22","5c71b17c891e3200012477a2","","","","","","null","<img class='card_right' src='images/old/6.jpg'><img class=reward src='images/won1-no-back1.png'>","null","","exp","reward","22","1","1","1","","0","1","0","1","0","0.75","0.65"
"html-keyboard-response","240","573137","0.0-5.0-2.0-1.0-0.23","5c71b17c891e3200012477a2","","","","","","null","<div class=""fixation"">+</div>","null","","","","","","","","","","","","","","",""
"html-keyboard-response","241","573703","0.0-5.0-2.0-1.0-1.23","5c71b17c891e3200012477a2","","","","","","564","<img class='card_left' src='images/catch_trial/42.jpg'><img class=surprise src='images/surprise.jpg'><img class='card_right' src='images/catch_trial/59.jpg'>","k","","exp","cards","23","","","","","2","1","","","","",""
"html-keyboard-response","242","574208","0.0-5.0-2.0-1.0-2.23","5c71b17c891e3200012477a2","","","","","","null","<img class='card_right' src='images/catch_trial/59.jpg'><img class=surprise src='images/surprise.jpg'>","null","","exp","choice","23","1","11","","","2","1","","11","10","",""
"html-keyboard-response","243","574966","0.0-5.0-2.0-1.0-3.23","5c71b17c891e3200012477a2","","","","","","null","<img class='card_right' src='images/catch_trial/59.jpg'><img class=surprise src='images/surprise.jpg'>","null","","exp","reward","23","1","11","0","","2","1","0","11","10","0.5","0.5"
"html-keyboard-response","244","575880","0.0-5.0-2.0-1.0-0.24","5c71b17c891e3200012477a2","","","","","","null","<div class=""fixation"">+</div>","null","","","","","","","","","","","","","","",""
"html-keyboard-response","245","576322","0.0-5.0-2.0-1.0-1.24","5c71b17c891e3200012477a2","","","","","","440","<img class='card_left' src='images/old/7.jpg'><img class='card_right' src='images/old/8.jpeg'><div class=""fixation"">+</div>","s","","exp","cards","24","","","","","1","1","","","","",""
"html-keyboard-response","246","576838","0.0-5.0-2.0-1.0-2.24","5c71b17c891e3200012477a2","","","","","","null","<img class='card_left' src='images/old/7.jpg'><div class=""fixation"">+</div>","null","","exp","choice","24","0","2","","","1","1","","3","2","",""
"html-keyboard-response","247","577595","0.0-5.0-2.0-1.0-3.24","5c71b17c891e3200012477a2","","","","","","null","<img class='card_left' src='images/old/7.jpg'><img class=reward src='images/won1-no-back1.png'>","null","","exp","reward","24","0","2","1","","1","1","0","3","2","0.65","0.75"
"html-keyboard-response","248","578507","0.0-5.0-2.0-1.0-0.25","5c71b17c891e3200012477a2","","","","","","null","<div class=""fixation"">+</div>","null","","","","","","","","","","","","","","",""
"html-keyboard-response","249","579071","0.0-5.0-2.0-1.0-1.25","5c71b17c891e3200012477a2","","","","","","563","<img class='card_left' src='images/catch_trial/13.jpg'><img class=surprise src='images/surprise.jpg'><img class='card_right' src='images/catch_trial/41.jpg'>","s","","exp","cards","25","","","","","2","1","","","","",""
"html-keyboard-response","250","579575","0.0-5.0-2.0-1.0-2.25","5c71b17c891e3200012477a2","","","","","","null","<img class='card_left' src='images/catch_trial/13.jpg'><img class=surprise src='images/surprise.jpg'>","null","","exp","choice","25","0","12","","","2","1","","13","12","",""
"html-keyboard-response","251","580332","0.0-5.0-2.0-1.0-3.25","5c71b17c891e3200012477a2","","","","","","null","<img class='card_left' src='images/catch_trial/13.jpg'><img class=surprise src='images/surprise.jpg'>","null","","exp","reward","25","0","12","1","","2","1","0","13","12","0.5","0.5"
"html-keyboard-response","252","581244","0.0-5.0-2.0-1.0-0.26","5c71b17c891e3200012477a2","","","","","","null","<div class=""fixation"">+</div>","null","","","","","","","","","","","","","","",""
"html-keyboard-response","253","581663","0.0-5.0-2.0-1.0-1.26","5c71b17c891e3200012477a2","","","","","","417","<img class='card_left' src='images/old/5.jpg'><img class='card_right' src='images/old/6.jpg'><div class=""fixation"">+</div>","k","","exp","cards","26","","","","","0","1","","","","",""
"html-keyboard-response","254","582174","0.0-5.0-2.0-1.0-2.26","5c71b17c891e3200012477a2","","","","","","null","<img class='card_right' src='images/old/6.jpg'><div class=""fixation"">+</div>","null","","exp","choice","26","1","1","","","0","1","","1","0","",""
"html-keyboard-response","255","582934","0.0-5.0-2.0-1.0-3.26","5c71b17c891e3200012477a2","","","","","","null","<img class='card_right' src='images/old/6.jpg'><img class=reward src='images/won1-no-back1.png'>","null","","exp","reward","26","1","1","1","","0","1","0","1","0","0.75","0.65"
"html-keyboard-response","256","583846","0.0-5.0-2.0-1.0-0.27","5c71b17c891e3200012477a2","","","","","","null","<div class=""fixation"">+</div>","null","","","","","","","","","","","","","","",""
"html-keyboard-response","257","584422","0.0-5.0-2.0-1.0-1.27","5c71b17c891e3200012477a2","","","","","","575","<img class='card_left' src='images/catch_trial/18.jpg'><img class=surprise src='images/surprise.jpg'><img class='card_right' src='images/catch_trial/21.jpg'>","s","","exp","cards","27","","","","","2","1","","","","",""
"html-keyboard-response","258","584926","0.0-5.0-2.0-1.0-2.27","5c71b17c891e3200012477a2","","","","","","null","<img class='card_left' src='images/catch_trial/18.jpg'><img class=surprise src='images/surprise.jpg'>","null","","exp","choice","27","0","14","","","2","1","","15","14","",""
"html-keyboard-response","259","585678","0.0-5.0-2.0-1.0-3.27","5c71b17c891e3200012477a2","","","","","","null","<img class='card_left' src='images/catch_trial/18.jpg'><img class=surprise src='images/surprise.jpg'>","null","","exp","reward","27","0","14","1","","2","1","0","15","14","0.5","0.5"
"html-keyboard-response","260","586594","0.0-5.0-2.0-1.0-0.28","5c71b17c891e3200012477a2","","","","","","null","<div class=""fixation"">+</div>","null","","","","","","","","","","","","","","",""
"html-keyboard-response","261","587077","0.0-5.0-2.0-1.0-1.28","5c71b17c891e3200012477a2","","","","","","482","<img class='card_left' src='images/old/7.jpg'><img class='card_right' src='images/old/8.jpeg'><div class=""fixation"">+</div>","s","","exp","cards","28","","","","","1","1","","","","",""
"html-keyboard-response","262","587578","0.0-5.0-2.0-1.0-2.28","5c71b17c891e3200012477a2","","","","","","null","<img class='card_left' src='images/old/7.jpg'><div class=""fixation"">+</div>","null","","exp","choice","28","0","2","","","1","1","","3","2","",""
"html-keyboard-response","263","588339","0.0-5.0-2.0-1.0-3.28","5c71b17c891e3200012477a2","","","","","","null","<img class='card_left' src='images/old/7.jpg'><img class=reward src='images/won1-no-back1.png'>","null","","exp","reward","28","0","2","1","","1","1","0","3","2","0.65","0.75"
"html-keyboard-response","264","589252","0.0-5.0-2.0-1.0-0.29","5c71b17c891e3200012477a2","","","","","","null","<div class=""fixation"">+</div>","null","","","","","","","","","","","","","","",""
"html-keyboard-response","265","589740","0.0-5.0-2.0-1.0-1.29","5c71b17c891e3200012477a2","","","","","","487","<img class='card_left' src='images/catch_trial/43.jpg'><img class=surprise src='images/surprise.jpg'><img class='card_right' src='images/catch_trial/39.jpg'>","s","","exp","cards","29","","","","","2","1","","","","",""
"html-keyboard-response","266","590241","0.0-5.0-2.0-1.0-2.29","5c71b17c891e3200012477a2","","","","","","null","<img class='card_left' src='images/catch_trial/43.jpg'><img class=surprise src='images/surprise.jpg'>","null","","exp","choice","29","0","16","","","2","1","","17","16","",""
"html-keyboard-response","267","590997","0.0-5.0-2.0-1.0-3.29","5c71b17c891e3200012477a2","","","","","","null","<img class='card_left' src='images/catch_trial/43.jpg'><img class=surprise src='images/surprise.jpg'>","null","","exp","reward","29","0","16","0","","2","1","0","17","16","0.5","0.5"
"html-keyboard-response","268","591906","0.0-5.0-2.0-1.0-0.30","5c71b17c891e3200012477a2","","","","","","null","<div class=""fixation"">+</div>","null","","","","","","","","","","","","","","",""
"html-keyboard-response","269","592424","0.0-5.0-2.0-1.0-1.30","5c71b17c891e3200012477a2","","","","","","517","<img class='card_left' src='images/old/7.jpg'><img class='card_right' src='images/old/8.jpeg'><div class=""fixation"">+</div>","s","","exp","cards","30","","","","","1","1","","","","",""
"html-keyboard-response","270","592938","0.0-5.0-2.0-1.0-2.30","5c71b17c891e3200012477a2","","","","","","null","<img class='card_left' src='images/old/7.jpg'><div class=""fixation"">+</div>","null","","exp","choice","30","0","2","","","1","1","","3","2","",""
"html-keyboard-response","271","593695","0.0-5.0-2.0-1.0-3.30","5c71b17c891e3200012477a2","","","","","","null","<img class='card_left' src='images/old/7.jpg'><img class=reward src='images/won1-no-back1.png'>","null","","exp","reward","30","0","2","1","","1","1","0","3","2","0.65","0.75"
"html-keyboard-response","272","594601","0.0-5.0-2.0-1.0-0.31","5c71b17c891e3200012477a2","","","","","","null","<div class=""fixation"">+</div>","null","","","","","","","","","","","","","","",""
"html-keyboard-response","273","595099","0.0-5.0-2.0-1.0-1.31","5c71b17c891e3200012477a2","","","","","","496","<img class='card_left' src='images/catch_trial/45.jpg'><img class=surprise src='images/surprise.jpg'><img class='card_right' src='images/catch_trial/53.jpg'>","k","","exp","cards","31","","","","","2","1","","","","",""
"html-keyboard-response","274","595605","0.0-5.0-2.0-1.0-2.31","5c71b17c891e3200012477a2","","","","","","null","<img class='card_right' src='images/catch_trial/53.jpg'><img class=surprise src='images/surprise.jpg'>","null","","exp","choice","31","1","19","","","2","1","","19","18","",""
"html-keyboard-response","275","596360","0.0-5.0-2.0-1.0-3.31","5c71b17c891e3200012477a2","","","","","","null","<img class='card_right' src='images/catch_trial/53.jpg'><img class=surprise src='images/surprise.jpg'>","null","","exp","reward","31","1","19","1","","2","1","0","19","18","0.5","0.5"
"html-keyboard-response","276","597272","0.0-5.0-2.0-1.0-0.32","5c71b17c891e3200012477a2","","","","","","null","<div class=""fixation"">+</div>","null","","","","","","","","","","","","","","",""
"html-keyboard-response","277","597675","0.0-5.0-2.0-1.0-1.32","5c71b17c891e3200012477a2","","","","","","402","<img class='card_left' src='images/old/6.jpg'><img class='card_right' src='images/old/5.jpg'><div class=""fixation"">+</div>","s","","exp","cards","32","","","","","0","1","","","","",""
"html-keyboard-response","278","598181","0.0-5.0-2.0-1.0-2.32","5c71b17c891e3200012477a2","","","","","","null","<img class='card_left' src='images/old/6.jpg'><div class=""fixation"">+</div>","null","","exp","choice","32","0","1","","","0","1","","0","1","",""
"html-keyboard-response","279","598941","0.0-5.0-2.0-1.0-3.32","5c71b17c891e3200012477a2","","","","","","null","<img class='card_left' src='images/old/6.jpg'><img class=reward src='images/won1-no-back1.png'>","null","","exp","reward","32","0","1","1","","0","1","0","0","1","0.75","0.65"
"html-keyboard-response","280","599853","0.0-5.0-2.0-1.0-0.33","5c71b17c891e3200012477a2","","","","","","null","<div class=""fixation"">+</div>","null","","","","","","","","","","","","","","",""
"html-keyboard-response","281","600304","0.0-5.0-2.0-1.0-1.33","5c71b17c891e3200012477a2","","","","","","450","<img class='card_left' src='images/old/5.jpg'><img class='card_right' src='images/old/6.jpg'><div class=""fixation"">+</div>","k","","exp","cards","33","","","","","0","1","","","","",""
"html-keyboard-response","282","600810","0.0-5.0-2.0-1.0-2.33","5c71b17c891e3200012477a2","","","","","","null","<img class='card_right' src='images/old/6.jpg'><div class=""fixation"">+</div>","null","","exp","choice","33","1","1","","","0","1","","1","0","",""
"html-keyboard-response","283","601566","0.0-5.0-2.0-1.0-3.33","5c71b17c891e3200012477a2","","","","","","null","<img class='card_right' src='images/old/6.jpg'><img class=reward src='images/zero_coins.png'>","null","","exp","reward","33","1","1","0","","0","1","0","1","0","0.75","0.65"
"html-keyboard-response","284","602477","0.0-5.0-2.0-1.0-0.34","5c71b17c891e3200012477a2","","","","","","null","<div class=""fixation"">+</div>","null","","","","","","","","","","","","","","",""
"html-keyboard-response","285","602931","0.0-5.0-2.0-1.0-1.34","5c71b17c891e3200012477a2","","","","","","453","<img class='card_left' src='images/catch_trial/1.jpg'><img class=surprise src='images/surprise.jpg'><img class='card_right' src='images/catch_trial/14.jpg'>","s","","exp","cards","34","","","","","2","1","","","","",""
"html-keyboard-response","286","603434","0.0-5.0-2.0-1.0-2.34","5c71b17c891e3200012477a2","","","","","","null","<img class='card_left' src='images/catch_trial/1.jpg'><img class=surprise src='images/surprise.jpg'>","null","","exp","choice","34","0","20","","","2","1","","21","20","",""
"html-keyboard-response","287","604192","0.0-5.0-2.0-1.0-3.34","5c71b17c891e3200012477a2","","","","","","null","<img class='card_left' src='images/catch_trial/1.jpg'><img class=surprise src='images/surprise.jpg'>","null","","exp","reward","34","0","20","1","","2","1","0","21","20","0.5","0.5"
"html-keyboard-response","288","605105","0.0-5.0-2.0-1.0-0.35","5c71b17c891e3200012477a2","","","","","","null","<div class=""fixation"">+</div>","null","","","","","","","","","","","","","","",""
"html-keyboard-response","289","605678","0.0-5.0-2.0-1.0-1.35","5c71b17c891e3200012477a2","","","","","","572","<img class='card_left' src='images/old/7.jpg'><img class='card_right' src='images/old/8.jpeg'><div class=""fixation"">+</div>","s","","exp","cards","35","","","","","1","1","","","","",""
"html-keyboard-response","290","606192","0.0-5.0-2.0-1.0-2.35","5c71b17c891e3200012477a2","","","","","","null","<img class='card_left' src='images/old/7.jpg'><div class=""fixation"">+</div>","null","","exp","choice","35","0","2","","","1","1","","3","2","",""
"html-keyboard-response","291","606949","0.0-5.0-2.0-1.0-3.35","5c71b17c891e3200012477a2","","","","","","null","<img class='card_left' src='images/old/7.jpg'><img class=reward src='images/zero_coins.png'>","null","","exp","reward","35","0","2","0","","1","1","0","3","2","0.65","0.75"
"html-keyboard-response","292","607861","0.0-5.0-2.0-1.0-0.36","5c71b17c891e3200012477a2","","","","","","null","<div class=""fixation"">+</div>","null","","","","","","","","","","","","","","",""
"html-keyboard-response","293","608320","0.0-5.0-2.0-1.0-1.36","5c71b17c891e3200012477a2","","","","","","458","<img class='card_left' src='images/old/6.jpg'><img class='card_right' src='images/old/5.jpg'><div class=""fixation"">+</div>","s","","exp","cards","36","","","","","0","1","","","","",""
"html-keyboard-response","294","608821","0.0-5.0-2.0-1.0-2.36","5c71b17c891e3200012477a2","","","","","","null","<img class='card_left' src='images/old/6.jpg'><div class=""fixation"">+</div>","null","","exp","choice","36","0","1","","","0","1","","0","1","",""
"html-keyboard-response","295","609580","0.0-5.0-2.0-1.0-3.36","5c71b17c891e3200012477a2","","","","","","null","<img class='card_left' src='images/old/6.jpg'><img class=reward src='images/won1-no-back1.png'>","null","","exp","reward","36","0","1","1","","0","1","0","0","1","0.75","0.65"
"html-keyboard-response","296","610493","0.0-5.0-2.0-1.0-0.37","5c71b17c891e3200012477a2","","","","","","null","<div class=""fixation"">+</div>","null","","","","","","","","","","","","","","",""
"html-keyboard-response","297","611236","0.0-5.0-2.0-1.0-1.37","5c71b17c891e3200012477a2","","","","","","742","<img class='card_left' src='images/catch_trial/23.jpg'><img class=surprise src='images/surprise.jpg'><img class='card_right' src='images/catch_trial/25.jpg'>","k","","exp","cards","37","","","","","2","1","","","","",""
"html-keyboard-response","298","611747","0.0-5.0-2.0-1.0-2.37","5c71b17c891e3200012477a2","","","","","","null","<img class='card_right' src='images/catch_trial/25.jpg'><img class=surprise src='images/surprise.jpg'>","null","","exp","choice","37","1","23","","","2","1","","23","22","",""
"html-keyboard-response","299","612506","0.0-5.0-2.0-1.0-3.37","5c71b17c891e3200012477a2","","","","","","null","<img class='card_right' src='images/catch_trial/25.jpg'><img class=surprise src='images/surprise.jpg'>","null","","exp","reward","37","1","23","0","","2","1","0","23","22","0.5","0.5"
"html-keyboard-response","300","613420","0.0-5.0-2.0-1.0-0.38","5c71b17c891e3200012477a2","","","","","","null","<div class=""fixation"">+</div>","null","","","","","","","","","","","","","","",""
"html-keyboard-response","301","613894","0.0-5.0-2.0-1.0-1.38","5c71b17c891e3200012477a2","","","","","","472","<img class='card_left' src='images/old/8.jpeg'><img class='card_right' src='images/old/7.jpg'><div class=""fixation"">+</div>","s","","exp","cards","38","","","","","1","1","","","","",""
"html-keyboard-response","302","614398","0.0-5.0-2.0-1.0-2.38","5c71b17c891e3200012477a2","","","","","","null","<img class='card_left' src='images/old/8.jpeg'><div class=""fixation"">+</div>","null","","exp","choice","38","0","3","","","1","1","","2","3","",""
"html-keyboard-response","303","615153","0.0-5.0-2.0-1.0-3.38","5c71b17c891e3200012477a2","","","","","","null","<img class='card_left' src='images/old/8.jpeg'><img class=reward src='images/zero_coins.png'>","null","","exp","reward","38","0","3","0","","1","1","0","2","3","0.75","0.65"
"html-keyboard-response","304","616064","0.0-5.0-2.0-1.0-0.39","5c71b17c891e3200012477a2","","","","","","null","<div class=""fixation"">+</div>","null","","","","","","","","","","","","","","",""
"html-keyboard-response","305","616720","0.0-5.0-2.0-1.0-1.39","5c71b17c891e3200012477a2","","","","","","654","<img class='card_left' src='images/catch_trial/58.jpg'><img class=surprise src='images/surprise.jpg'><img class='card_right' src='images/catch_trial/3.jpg'>","k","","exp","cards","39","","","","","2","1","","","","",""
"html-keyboard-response","306","617226","0.0-5.0-2.0-1.0-2.39","5c71b17c891e3200012477a2","","","","","","null","<img class='card_right' src='images/catch_trial/3.jpg'><img class=surprise src='images/surprise.jpg'>","null","","exp","choice","39","1","25","","","2","1","","25","24","",""
"html-keyboard-response","307","617977","0.0-5.0-2.0-1.0-3.39","5c71b17c891e3200012477a2","","","","","","null","<img class='card_right' src='images/catch_trial/3.jpg'><img class=surprise src='images/surprise.jpg'>","null","","exp","reward","39","1","25","0","","2","1","0","25","24","0.5","0.5"
"html-keyboard-response","308","618892","0.0-5.0-2.0-1.0-0.40","5c71b17c891e3200012477a2","","","","","","null","<div class=""fixation"">+</div>","null","","","","","","","","","","","","","","",""
"html-keyboard-response","309","619445","0.0-5.0-2.0-1.0-1.40","5c71b17c891e3200012477a2","","","","","","551","<img class='card_left' src='images/old/7.jpg'><img class='card_right' src='images/old/8.jpeg'><div class=""fixation"">+</div>","s","","exp","cards","40","","","","","1","1","","","","",""
"html-keyboard-response","310","619959","0.0-5.0-2.0-1.0-2.40","5c71b17c891e3200012477a2","","","","","","null","<img class='card_left' src='images/old/7.jpg'><div class=""fixation"">+</div>","null","","exp","choice","40","0","2","","","1","1","","3","2","",""
"html-keyboard-response","311","620715","0.0-5.0-2.0-1.0-3.40","5c71b17c891e3200012477a2","","","","","","null","<img class='card_left' src='images/old/7.jpg'><img class=reward src='images/won1-no-back1.png'>","null","","exp","reward","40","0","2","1","","1","1","0","3","2","0.65","0.75"
"html-keyboard-response","312","621620","0.0-5.0-2.0-1.0-0.41","5c71b17c891e3200012477a2","","","","","","null","<div class=""fixation"">+</div>","null","","","","","","","","","","","","","","",""
"html-keyboard-response","313","621988","0.0-5.0-2.0-1.0-1.41","5c71b17c891e3200012477a2","","","","","","367","<img class='card_left' src='images/old/7.jpg'><img class='card_right' src='images/old/8.jpeg'><div class=""fixation"">+</div>","s","","exp","cards","41","","","","","1","1","","","","",""
"html-keyboard-response","314","622497","0.0-5.0-2.0-1.0-2.41","5c71b17c891e3200012477a2","","","","","","null","<img class='card_left' src='images/old/7.jpg'><div class=""fixation"">+</div>","null","","exp","choice","41","0","2","","","1","1","","3","2","",""
"html-keyboard-response","315","623251","0.0-5.0-2.0-1.0-3.41","5c71b17c891e3200012477a2","","","","","","null","<img class='card_left' src='images/old/7.jpg'><img class=reward src='images/zero_coins.png'>","null","","exp","reward","41","0","2","0","","1","1","0","3","2","0.65","0.75"
"html-keyboard-response","316","624166","0.0-5.0-2.0-1.0-0.42","5c71b17c891e3200012477a2","","","","","","null","<div class=""fixation"">+</div>","null","","","","","","","","","","","","","","",""
"html-keyboard-response","317","624700","0.0-5.0-2.0-1.0-1.42","5c71b17c891e3200012477a2","","","","","","532","<img class='card_left' src='images/catch_trial/33.jpg'><img class=surprise src='images/surprise.jpg'><img class='card_right' src='images/catch_trial/52.jpg'>","k","","exp","cards","42","","","","","2","1","","","","",""
"html-keyboard-response","318","625205","0.0-5.0-2.0-1.0-2.42","5c71b17c891e3200012477a2","","","","","","null","<img class='card_right' src='images/catch_trial/52.jpg'><img class=surprise src='images/surprise.jpg'>","null","","exp","choice","42","1","27","","","2","1","","27","26","",""
"html-keyboard-response","319","625957","0.0-5.0-2.0-1.0-3.42","5c71b17c891e3200012477a2","","","","","","null","<img class='card_right' src='images/catch_trial/52.jpg'><img class=surprise src='images/surprise.jpg'>","null","","exp","reward","42","1","27","0","","2","1","0","27","26","0.5","0.5"
"html-keyboard-response","320","626862","0.0-5.0-2.0-1.0-0.43","5c71b17c891e3200012477a2","","","","","","null","<div class=""fixation"">+</div>","null","","","","","","","","","","","","","","",""
"html-keyboard-response","321","627327","0.0-5.0-2.0-1.0-1.43","5c71b17c891e3200012477a2","","","","","","464","<img class='card_left' src='images/old/7.jpg'><img class='card_right' src='images/old/8.jpeg'><div class=""fixation"">+</div>","s","","exp","cards","43","","","","","1","1","","","","",""
"html-keyboard-response","322","627834","0.0-5.0-2.0-1.0-2.43","5c71b17c891e3200012477a2","","","","","","null","<img class='card_left' src='images/old/7.jpg'><div class=""fixation"">+</div>","null","","exp","choice","43","0","2","","","1","1","","3","2","",""
"html-keyboard-response","323","628593","0.0-5.0-2.0-1.0-3.43","5c71b17c891e3200012477a2","","","","","","null","<img class='card_left' src='images/old/7.jpg'><img class=reward src='images/won1-no-back1.png'>","null","","exp","reward","43","0","2","1","","1","1","0","3","2","0.65","0.75"
"html-keyboard-response","324","629499","0.0-5.0-2.0-1.0-0.44","5c71b17c891e3200012477a2","","","","","","null","<div class=""fixation"">+</div>","null","","","","","","","","","","","","","","",""
"html-keyboard-response","325","629954","0.0-5.0-2.0-1.0-1.44","5c71b17c891e3200012477a2","","","","","","454","<img class='card_left' src='images/old/6.jpg'><img class='card_right' src='images/old/5.jpg'><div class=""fixation"">+</div>","s","","exp","cards","44","","","","","0","1","","","","",""
"html-keyboard-response","326","630462","0.0-5.0-2.0-1.0-2.44","5c71b17c891e3200012477a2","","","","","","null","<img class='card_left' src='images/old/6.jpg'><div class=""fixation"">+</div>","null","","exp","choice","44","0","1","","","0","1","","0","1","",""
"html-keyboard-response","327","631221","0.0-5.0-2.0-1.0-3.44","5c71b17c891e3200012477a2","","","","","","null","<img class='card_left' src='images/old/6.jpg'><img class=reward src='images/won1-no-back1.png'>","null","","exp","reward","44","0","1","1","","0","1","0","0","1","0.75","0.65"
"html-keyboard-response","328","632133","0.0-5.0-2.0-1.0-0.45","5c71b17c891e3200012477a2","","","","","","null","<div class=""fixation"">+</div>","null","","","","","","","","","","","","","","",""
"html-keyboard-response","329","632557","0.0-5.0-2.0-1.0-1.45","5c71b17c891e3200012477a2","","","","","","423","<img class='card_left' src='images/old/5.jpg'><img class='card_right' src='images/old/6.jpg'><div class=""fixation"">+</div>","k","","exp","cards","45","","","","","0","1","","","","",""
"html-keyboard-response","330","633059","0.0-5.0-2.0-1.0-2.45","5c71b17c891e3200012477a2","","","","","","null","<img class='card_right' src='images/old/6.jpg'><div class=""fixation"">+</div>","null","","exp","choice","45","1","1","","","0","1","","1","0","",""
"html-keyboard-response","331","633818","0.0-5.0-2.0-1.0-3.45","5c71b17c891e3200012477a2","","","","","","null","<img class='card_right' src='images/old/6.jpg'><img class=reward src='images/won1-no-back1.png'>","null","","exp","reward","45","1","1","1","","0","1","0","1","0","0.75","0.65"
"html-keyboard-response","332","634730","0.0-5.0-2.0-1.0-0.46","5c71b17c891e3200012477a2","","","","","","null","<div class=""fixation"">+</div>","null","","","","","","","","","","","","","","",""
"html-keyboard-response","333","635381","0.0-5.0-2.0-1.0-1.46","5c71b17c891e3200012477a2","","","","","","651","<img class='card_left' src='images/catch_trial/15.jpg'><img class=surprise src='images/surprise.jpg'><img class='card_right' src='images/catch_trial/36.jpg'>","s","","exp","cards","46","","","","","2","1","","","","",""
"html-keyboard-response","334","635894","0.0-5.0-2.0-1.0-2.46","5c71b17c891e3200012477a2","","","","","","null","<img class='card_left' src='images/catch_trial/15.jpg'><img class=surprise src='images/surprise.jpg'>","null","","exp","choice","46","0","28","","","2","1","","29","28","",""
"html-keyboard-response","335","636649","0.0-5.0-2.0-1.0-3.46","5c71b17c891e3200012477a2","","","","","","null","<img class='card_left' src='images/catch_trial/15.jpg'><img class=surprise src='images/surprise.jpg'>","null","","exp","reward","46","0","28","0","","2","1","0","29","28","0.5","0.5"
"html-keyboard-response","336","637558","0.0-5.0-2.0-1.0-0.47","5c71b17c891e3200012477a2","","","","","","null","<div class=""fixation"">+</div>","null","","","","","","","","","","","","","","",""
"html-keyboard-response","337","638095","0.0-5.0-2.0-1.0-1.47","5c71b17c891e3200012477a2","","","","","","535","<img class='card_left' src='images/old/8.jpeg'><img class='card_right' src='images/old/7.jpg'><div class=""fixation"">+</div>","s","","exp","cards","47","","","","","1","1","","","","",""
"html-keyboard-response","338","638598","0.0-5.0-2.0-1.0-2.47","5c71b17c891e3200012477a2","","","","","","null","<img class='card_left' src='images/old/8.jpeg'><div class=""fixation"">+</div>","null","","exp","choice","47","0","3","","","1","1","","2","3","",""
"html-keyboard-response","339","639355","0.0-5.0-2.0-1.0-3.47","5c71b17c891e3200012477a2","","","","","","null","<img class='card_left' src='images/old/8.jpeg'><img class=reward src='images/won1-no-back1.png'>","null","","exp","reward","47","0","3","1","","1","1","0","2","3","0.75","0.65"
"html-keyboard-response","340","640269","0.0-5.0-2.0-1.0-0.48","5c71b17c891e3200012477a2","","","","","","null","<div class=""fixation"">+</div>","null","","","","","","","","","","","","","","",""
"html-keyboard-response","341","640700","0.0-5.0-2.0-1.0-1.48","5c71b17c891e3200012477a2","","","","","","431","<img class='card_left' src='images/old/6.jpg'><img class='card_right' src='images/old/5.jpg'><div class=""fixation"">+</div>","s","","exp","cards","48","","","","","0","1","","","","",""
"html-keyboard-response","342","641211","0.0-5.0-2.0-1.0-2.48","5c71b17c891e3200012477a2","","","","","","null","<img class='card_left' src='images/old/6.jpg'><div class=""fixation"">+</div>","null","","exp","choice","48","0","1","","","0","1","","0","1","",""
"html-keyboard-response","343","641970","0.0-5.0-2.0-1.0-3.48","5c71b17c891e3200012477a2","","","","","","null","<img class='card_left' src='images/old/6.jpg'><img class=reward src='images/zero_coins.png'>","null","","exp","reward","48","0","1","0","","0","1","0","0","1","0.75","0.65"
"html-keyboard-response","344","642882","0.0-5.0-2.0-1.0-0.49","5c71b17c891e3200012477a2","","","","","","null","<div class=""fixation"">+</div>","null","","","","","","","","","","","","","","",""
"html-keyboard-response","345","643504","0.0-5.0-2.0-1.0-1.49","5c71b17c891e3200012477a2","","","","","","620","<img class='card_left' src='images/catch_trial/35.jpg'><img class=surprise src='images/surprise.jpg'><img class='card_right' src='images/catch_trial/38.jpg'>","k","","exp","cards","49","","","","","2","1","","","","",""
"html-keyboard-response","346","644010","0.0-5.0-2.0-1.0-2.49","5c71b17c891e3200012477a2","","","","","","null","<img class='card_right' src='images/catch_trial/38.jpg'><img class=surprise src='images/surprise.jpg'>","null","","exp","choice","49","1","31","","","2","1","","31","30","",""
"html-keyboard-response","347","644768","0.0-5.0-2.0-1.0-3.49","5c71b17c891e3200012477a2","","","","","","null","<img class='card_right' src='images/catch_trial/38.jpg'><img class=surprise src='images/surprise.jpg'>","null","","exp","reward","49","1","31","1","","2","1","0","31","30","0.5","0.5"
"html-keyboard-response","348","649814","0.0-5.0-2.0-2.0","5c71b17c891e3200012477a2","","","","","","5045","<p><b>Good job!</b></p><p style=""text-align: left""><br> Test block <b>1 out of 4</b> is over. You earned <b> 22</b> coins on cards trials and <b>7</b> coins on shapes trials.<br>You can stretch a little and take a short break while sitting in front of the screen, if needed.</p><p> <br><br><br><b>Press SPACE to continue</b>  </p>"," ","","","","","","","","","","","","","","",""
"survey-likert","349","689920","0.0-5.0-2.0-3.0","5c71b17c891e3200012477a2","","","","","","39102","","{""Q0"":0}","","","","","","","","[0]","","","","","","",""
"html-keyboard-response","350","694031","0.0-5.0-2.0-0.1","5c71b17c891e3200012477a2","","","","","","4109","<p><b><u> Part 2 out of 4</u></b></p><p style=""text-align: left""> You will now start a test block. Below are the four cards that can appear in this round.</p><p style='text-align: left'>Use the LEFT or RIGHT response keys ('S' or 'K', in correspondence) to make your selection. <br> Please do your best to win as many coins as possible!<br> </p><p style=""text-align: left""><b>Remember that:</b> <br> 1) Only the cards (not the response key that was used to select them) are related to winning coins <br> 2) Coin winning chances are specific for each card </p><p><b>Press any key to start</b></p><img class=start src=""images/old/9.jpg"">  <img class=start src=""images/old/10.jpg"">    <img class=start src=""images/old/11.jpg"">    <img class=start src=""images/old/12.jpg"">  "," ","","","","","","","","","","","","","","",""
"html-keyboard-response","351","695948","0.0-5.0-2.0-1.1-0.50","5c71b17c891e3200012477a2","","","","","","null","<div class=""fixation"">+</div>","null","","","","","","","","","","","","","","",""
"html-keyboard-response","352","696500","0.0-5.0-2.0-1.1-1.50","5c71b17c891e3200012477a2","","","","","","551","<img class='card_left' src='images/old/9.jpg'><img class='card_right' src='images/old/10.jpg'><div class=""fixation"">+</div>","k","","exp","cards","0","","","","","0","2","","","","",""
